{"mturk": {"Trial_1": {"workerID": "A3N0QZ9ZKUCTCQ", "workerData": {"country": "United States", "age": "31-35", "engagement": "6", "difficulty": "8", "mode": "live", "gender": "male", "education": "bachelor", "condition": 0, "native": "yes"}, "trialData": {"rt": 20357, "hit": "985", "trial": 1, "response_speaker": "human", "machine_groundtruth": "", "imageID": "static/dataset/coco_val_set/985.jpg", "page_name": "985_a_0.html/", "counterbalance": 0, "groundtruth": "human", "human_groundtruth": "human", "response_gender": "female"}}, "Trial_2": {"workerID": "A3N0QZ9ZKUCTCQ", "workerData": {"country": "United States", "age": "31-35", "engagement": "6", "difficulty": "8", "mode": "live", "gender": "male", "education": "bachelor", "condition": 0, "native": "yes"}, "trialData": {"rt": 16103, "hit": "1028", "trial": 2, "response_speaker": "human", "machine_groundtruth": "", "imageID": "static/dataset/coco_val_set/1028.jpg", "page_name": "1028_a_0.html/", "counterbalance": 0, "groundtruth": "human", "human_groundtruth": "human", "response_gender": "male"}}, "Trial_3": {"workerID": "A3N0QZ9ZKUCTCQ", "workerData": {"country": "United States", "age": "31-35", "engagement": "6", "difficulty": "8", "mode": "live", "gender": "male", "education": "bachelor", "condition": 0, "native": "yes"}, "trialData": {"rt": 13814, "hit": "1098", "trial": 3, "response_speaker": "machine", "machine_groundtruth": "mccq", "imageID": "static/dataset/coco_val_set/1098.jpg", "page_name": "1098_c_0.html/", "counterbalance": 0, "groundtruth": "machine", "human_groundtruth": "", "response_gender": "male"}}, "Trial_4": {"workerID": "A3N0QZ9ZKUCTCQ", "workerData": {"country": "United States", "age": "31-35", "engagement": "6", "difficulty": "8", "mode": "live", "gender": "male", "education": "bachelor", "condition": 0, "native": "yes"}, "trialData": {"rt": 19959, "hit": "915", "trial": 4, "response_speaker": "human", "machine_groundtruth": "", "imageID": "static/dataset/coco_val_set/915.jpg", "page_name": "915_a_0.html/", "counterbalance": 0, "groundtruth": "human", "human_groundtruth": "human", "response_gender": "male"}}, "Trial_5": {"workerID": "A3N0QZ9ZKUCTCQ", "workerData": {"country": "United States", "age": "31-35", "engagement": "6", "difficulty": "8", "mode": "live", "gender": "male", "education": "bachelor", "condition": 0, "native": "yes"}, "trialData": {"rt": 34020, "hit": "1075", "trial": 5, "response_speaker": "human", "machine_groundtruth": "", "imageID": "static/dataset/coco_val_set/1075.jpg", "page_name": "1075_a_0.html/", "counterbalance": 0, "groundtruth": "human", "human_groundtruth": "human", "response_gender": "male"}}, "Trial_6": {"workerID": "A3N0QZ9ZKUCTCQ", "workerData": {"country": "United States", "age": "31-35", "engagement": "6", "difficulty": "8", "mode": "live", "gender": "male", "education": "bachelor", "condition": 0, "native": "yes"}, "trialData": {"rt": 19030, "hit": "704", "trial": 6, "response_speaker": "machine", "machine_groundtruth": "", "imageID": "static/dataset/coco_val_set/704.jpg", "page_name": "704_a_0.html/", "counterbalance": 0, "groundtruth": "human", "human_groundtruth": "human", "response_gender": "male"}}, "Trial_7": {"workerID": "A3N0QZ9ZKUCTCQ", "workerData": {"country": "United States", "age": "31-35", "engagement": "6", "difficulty": "8", "mode": "live", "gender": "male", "education": "bachelor", "condition": 0, "native": "yes"}, "trialData": {"rt": 18205, "hit": "957", "trial": 7, "response_speaker": "human", "machine_groundtruth": "google", "imageID": "static/dataset/coco_val_set/957.jpg", "page_name": "957_d_0.html/", "counterbalance": 0, "groundtruth": "machine", "human_groundtruth": "", "response_gender": "male"}}, "Trial_8": {"workerID": "A3N0QZ9ZKUCTCQ", "workerData": {"country": "United States", "age": "31-35", "engagement": "6", "difficulty": "8", "mode": "live", "gender": "male", "education": "bachelor", "condition": 0, "native": "yes"}, "trialData": {"rt": 22477, "hit": "1176", "trial": 8, "response_speaker": "human", "machine_groundtruth": "mccq", "imageID": "static/dataset/coco_val_set/1176.jpg", "page_name": "1176_c_0.html/", "counterbalance": 0, "groundtruth": "machine", "human_groundtruth": "", "response_gender": "male"}}, "Trial_9": {"workerID": "A3N0QZ9ZKUCTCQ", "workerData": {"country": "United States", "age": "31-35", "engagement": "6", "difficulty": "8", "mode": "live", "gender": "male", "education": "bachelor", "condition": 0, "native": "yes"}, "trialData": {"rt": 16908, "hit": "279", "trial": 9, "response_speaker": "machine", "machine_groundtruth": "", "imageID": "static/dataset/coco_val_set/279.jpg", "page_name": "279_a_0.html/", "counterbalance": 0, "groundtruth": "human", "human_groundtruth": "human", "response_gender": "female"}}, "Trial_10": {"workerID": "A3N0QZ9ZKUCTCQ", "workerData": {"country": "United States", "age": "31-35", "engagement": "6", "difficulty": "8", "mode": "live", "gender": "male", "education": "bachelor", "condition": 0, "native": "yes"}, "trialData": {"rt": 42966, "hit": "394", "trial": 10, "response_speaker": "machine", "machine_groundtruth": "", "imageID": "static/dataset/coco_val_set/394.jpg", "page_name": "394_a_0.html/", "counterbalance": 0, "groundtruth": "human", "human_groundtruth": "human", "response_gender": "female"}}, "Trial_11": {"workerID": "A3N0QZ9ZKUCTCQ", "workerData": {"country": "United States", "age": "31-35", "engagement": "6", "difficulty": "8", "mode": "live", "gender": "male", "education": "bachelor", "condition": 0, "native": "yes"}, "trialData": {"rt": 20758, "hit": "795", "trial": 11, "response_speaker": "human", "machine_groundtruth": "", "imageID": "static/dataset/coco_val_set/795.jpg", "page_name": "795_a_0.html/", "counterbalance": 0, "groundtruth": "human", "human_groundtruth": "human", "response_gender": "female"}}, "Trial_12": {"workerID": "A3N0QZ9ZKUCTCQ", "workerData": {"country": "United States", "age": "31-35", "engagement": "6", "difficulty": "8", "mode": "live", "gender": "male", "education": "bachelor", "condition": 0, "native": "yes"}, "trialData": {"rt": 8558, "hit": "1093", "trial": 12, "response_speaker": "human", "machine_groundtruth": "google", "imageID": "static/dataset/coco_val_set/1093.jpg", "page_name": "1093_d_0.html/", "counterbalance": 0, "groundtruth": "machine", "human_groundtruth": "", "response_gender": "female"}}, "Trial_14": {"workerID": "A3N0QZ9ZKUCTCQ", "workerData": {"country": "United States", "age": "31-35", "engagement": "6", "difficulty": "8", "mode": "live", "gender": "male", "education": "bachelor", "condition": 0, "native": "yes"}, "trialData": {"rt": 15062, "hit": "1010", "trial": 14, "response_speaker": "human", "machine_groundtruth": "", "imageID": "static/dataset/coco_val_set/1010.jpg", "page_name": "1010_a_0.html/", "counterbalance": 0, "groundtruth": "human", "human_groundtruth": "human", "response_gender": "male"}}, "Trial_15": {"workerID": "A3N0QZ9ZKUCTCQ", "workerData": {"country": "United States", "age": "31-35", "engagement": "6", "difficulty": "8", "mode": "live", "gender": "male", "education": "bachelor", "condition": 0, "native": "yes"}, "trialData": {"rt": 29134, "hit": "557", "trial": 15, "response_speaker": "machine", "machine_groundtruth": "google", "imageID": "static/dataset/coco_val_set/557.jpg", "page_name": "557_d_0.html/", "counterbalance": 0, "groundtruth": "machine", "human_groundtruth": "", "response_gender": "female"}}, "Trial_16": {"workerID": "A3N0QZ9ZKUCTCQ", "workerData": {"country": "United States", "age": "31-35", "engagement": "6", "difficulty": "8", "mode": "live", "gender": "male", "education": "bachelor", "condition": 0, "native": "yes"}, "trialData": {"rt": 14806, "hit": "158", "trial": 16, "response_speaker": "human", "machine_groundtruth": "azure", "imageID": "static/dataset/coco_val_set/158.jpg", "page_name": "158_b_0.html/", "counterbalance": 0, "groundtruth": "machine", "human_groundtruth": "", "response_gender": "female"}}, "Trial_18": {"workerID": "A3N0QZ9ZKUCTCQ", "workerData": {"country": "United States", "age": "31-35", "engagement": "6", "difficulty": "8", "mode": "live", "gender": "male", "education": "bachelor", "condition": 0, "native": "yes"}, "trialData": {"rt": 8174, "hit": "324", "trial": 18, "response_speaker": "human", "machine_groundtruth": "", "imageID": "static/dataset/coco_val_set/324.jpg", "page_name": "324_a_0.html/", "counterbalance": 0, "groundtruth": "human", "human_groundtruth": "human", "response_gender": "female"}}, "Trial_19": {"workerID": "A3N0QZ9ZKUCTCQ", "workerData": {"country": "United States", "age": "31-35", "engagement": "6", "difficulty": "8", "mode": "live", "gender": "male", "education": "bachelor", "condition": 0, "native": "yes"}, "trialData": {"rt": 6591, "hit": "60", "trial": 19, "response_speaker": "machine", "machine_groundtruth": "mccq", "imageID": "static/dataset/coco_val_set/60.jpg", "page_name": "60_c_0.html/", "counterbalance": 0, "groundtruth": "machine", "human_groundtruth": "", "response_gender": "male"}}, "Trial_20": {"workerID": "A3N0QZ9ZKUCTCQ", "workerData": {"country": "United States", "age": "31-35", "engagement": "6", "difficulty": "8", "mode": "live", "gender": "male", "education": "bachelor", "condition": 0, "native": "yes"}, "trialData": {"rt": 17700, "hit": "1151", "trial": 20, "response_speaker": "human", "machine_groundtruth": "google", "imageID": "static/dataset/coco_val_set/1151.jpg", "page_name": "1151_d_0.html/", "counterbalance": 0, "groundtruth": "machine", "human_groundtruth": "", "response_gender": "male"}}, "Trial_21": {"workerID": "A3N0QZ9ZKUCTCQ", "workerData": {"country": "United States", "age": "31-35", "engagement": "6", "difficulty": "8", "mode": "live", "gender": "male", "education": "bachelor", "condition": 0, "native": "yes"}, "trialData": {"rt": 8222, "hit": "314", "trial": 21, "response_speaker": "machine", "machine_groundtruth": "azure", "imageID": "static/dataset/coco_val_set/314.jpg", "page_name": "314_b_0.html/", "counterbalance": 0, "groundtruth": "machine", "human_groundtruth": "", "response_gender": "male"}}, "Trial_22": {"workerID": "A3N0QZ9ZKUCTCQ", "workerData": {"country": "United States", "age": "31-35", "engagement": "6", "difficulty": "8", "mode": "live", "gender": "male", "education": "bachelor", "condition": 0, "native": "yes"}, "trialData": {"rt": 6660, "hit": "254", "trial": 22, "response_speaker": "human", "machine_groundtruth": "mccq", "imageID": "static/dataset/coco_val_set/254.jpg", "page_name": "254_c_0.html/", "counterbalance": 0, "groundtruth": "machine", "human_groundtruth": "", "response_gender": "female"}}, "Trial_23": {"workerID": "A3N0QZ9ZKUCTCQ", "workerData": {"country": "United States", "age": "31-35", "engagement": "6", "difficulty": "8", "mode": "live", "gender": "male", "education": "bachelor", "condition": 0, "native": "yes"}, "trialData": {"rt": 9454, "hit": "574", "trial": 23, "response_speaker": "human", "machine_groundtruth": "", "imageID": "static/dataset/coco_val_set/574.jpg", "page_name": "574_a_0.html/", "counterbalance": 0, "groundtruth": "human", "human_groundtruth": "human", "response_gender": "female"}}, "Trial_24": {"workerID": "A3N0QZ9ZKUCTCQ", "workerData": {"country": "United States", "age": "31-35", "engagement": "6", "difficulty": "8", "mode": "live", "gender": "male", "education": "bachelor", "condition": 0, "native": "yes"}, "trialData": {"rt": 7066, "hit": "490", "trial": 24, "response_speaker": "human", "machine_groundtruth": "google", "imageID": "static/dataset/coco_val_set/490.jpg", "page_name": "490_d_0.html/", "counterbalance": 0, "groundtruth": "machine", "human_groundtruth": "", "response_gender": "female"}}, "Trial_25": {"workerID": "A3N0QZ9ZKUCTCQ", "workerData": {"country": "United States", "age": "31-35", "engagement": "6", "difficulty": "8", "mode": "live", "gender": "male", "education": "bachelor", "condition": 0, "native": "yes"}, "trialData": {"rt": 8743, "hit": "383", "trial": 25, "response_speaker": "machine", "machine_groundtruth": "azure", "imageID": "static/dataset/coco_val_set/383.jpg", "page_name": "383_b_0.html/", "counterbalance": 0, "groundtruth": "machine", "human_groundtruth": "", "response_gender": "male"}}, "Trial_26": {"workerID": "A3G55RJTW3BSGM", "workerData": {"country": "United States", "age": "41-45", "engagement": "5", "difficulty": "4", "mode": "live", "gender": "female", "education": "master", "condition": 0, "native": "yes"}, "trialData": {"rt": 12187, "hit": "870", "trial": 1, "response_speaker": "human", "machine_groundtruth": "google", "imageID": "static/dataset/coco_val_set/870.jpg", "page_name": "870_d_0.html/", "counterbalance": 0, "groundtruth": "machine", "human_groundtruth": "", "response_gender": "male"}}, "Trial_27": {"workerID": "A3G55RJTW3BSGM", "workerData": {"country": "United States", "age": "41-45", "engagement": "5", "difficulty": "4", "mode": "live", "gender": "female", "education": "master", "condition": 0, "native": "yes"}, "trialData": {"rt": 9933, "hit": "357", "trial": 2, "response_speaker": "machine", "machine_groundtruth": "", "imageID": "static/dataset/coco_val_set/357.jpg", "page_name": "357_a_0.html/", "counterbalance": 0, "groundtruth": "human", "human_groundtruth": "human", "response_gender": "male"}}, "Trial_28": {"workerID": "A3G55RJTW3BSGM", "workerData": {"country": "United States", "age": "41-45", "engagement": "5", "difficulty": "4", "mode": "live", "gender": "female", "education": "master", "condition": 0, "native": "yes"}, "trialData": {"rt": 9322, "hit": "192", "trial": 3, "response_speaker": "human", "machine_groundtruth": "", "imageID": "static/dataset/coco_val_set/192.jpg", "page_name": "192_a_0.html/", "counterbalance": 0, "groundtruth": "human", "human_groundtruth": "human", "response_gender": "female"}}, "Trial_29": {"workerID": "A3G55RJTW3BSGM", "workerData": {"country": "United States", "age": "41-45", "engagement": "5", "difficulty": "4", "mode": "live", "gender": "female", "education": "master", "condition": 0, "native": "yes"}, "trialData": {"rt": 11296, "hit": "771", "trial": 4, "response_speaker": "human", "machine_groundtruth": "", "imageID": "static/dataset/coco_val_set/771.jpg", "page_name": "771_a_0.html/", "counterbalance": 0, "groundtruth": "human", "human_groundtruth": "human", "response_gender": "male"}}, "Trial_30": {"workerID": "A3G55RJTW3BSGM", "workerData": {"country": "United States", "age": "41-45", "engagement": "5", "difficulty": "4", "mode": "live", "gender": "female", "education": "master", "condition": 0, "native": "yes"}, "trialData": {"rt": 16783, "hit": "215", "trial": 5, "response_speaker": "machine", "machine_groundtruth": "google", "imageID": "static/dataset/coco_val_set/215.jpg", "page_name": "215_d_0.html/", "counterbalance": 0, "groundtruth": "machine", "human_groundtruth": "", "response_gender": "male"}}, "Trial_31": {"workerID": "A3G55RJTW3BSGM", "workerData": {"country": "United States", "age": "41-45", "engagement": "5", "difficulty": "4", "mode": "live", "gender": "female", "education": "master", "condition": 0, "native": "yes"}, "trialData": {"rt": 6168, "hit": "153", "trial": 6, "response_speaker": "machine", "machine_groundtruth": "", "imageID": "static/dataset/coco_val_set/153.jpg", "page_name": "153_a_0.html/", "counterbalance": 0, "groundtruth": "human", "human_groundtruth": "human", "response_gender": "male"}}, "Trial_32": {"workerID": "A3G55RJTW3BSGM", "workerData": {"country": "United States", "age": "41-45", "engagement": "5", "difficulty": "4", "mode": "live", "gender": "female", "education": "master", "condition": 0, "native": "yes"}, "trialData": {"rt": 10503, "hit": "324", "trial": 7, "response_speaker": "machine", "machine_groundtruth": "", "imageID": "static/dataset/coco_val_set/324.jpg", "page_name": "324_a_0.html/", "counterbalance": 0, "groundtruth": "human", "human_groundtruth": "human", "response_gender": "male"}}, "Trial_33": {"workerID": "A3G55RJTW3BSGM", "workerData": {"country": "United States", "age": "41-45", "engagement": "5", "difficulty": "4", "mode": "live", "gender": "female", "education": "master", "condition": 0, "native": "yes"}, "trialData": {"rt": 16812, "hit": "177", "trial": 8, "response_speaker": "machine", "machine_groundtruth": "azure", "imageID": "static/dataset/coco_val_set/177.jpg", "page_name": "177_b_0.html/", "counterbalance": 0, "groundtruth": "machine", "human_groundtruth": "", "response_gender": "male"}}, "Trial_34": {"workerID": "A3G55RJTW3BSGM", "workerData": {"country": "United States", "age": "41-45", "engagement": "5", "difficulty": "4", "mode": "live", "gender": "female", "education": "master", "condition": 0, "native": "yes"}, "trialData": {"rt": 11153, "hit": "174", "trial": 9, "response_speaker": "machine", "machine_groundtruth": "", "imageID": "static/dataset/coco_val_set/174.jpg", "page_name": "174_a_0.html/", "counterbalance": 0, "groundtruth": "human", "human_groundtruth": "human", "response_gender": "female"}}, "Trial_35": {"workerID": "A3G55RJTW3BSGM", "workerData": {"country": "United States", "age": "41-45", "engagement": "5", "difficulty": "4", "mode": "live", "gender": "female", "education": "master", "condition": 0, "native": "yes"}, "trialData": {"rt": 10083, "hit": "513", "trial": 10, "response_speaker": "machine", "machine_groundtruth": "", "imageID": "static/dataset/coco_val_set/513.jpg", "page_name": "513_a_0.html/", "counterbalance": 0, "groundtruth": "human", "human_groundtruth": "human", "response_gender": "male"}}, "Trial_36": {"workerID": "A3G55RJTW3BSGM", "workerData": {"country": "United States", "age": "41-45", "engagement": "5", "difficulty": "4", "mode": "live", "gender": "female", "education": "master", "condition": 0, "native": "yes"}, "trialData": {"rt": 8181, "hit": "774", "trial": 11, "response_speaker": "machine", "machine_groundtruth": "", "imageID": "static/dataset/coco_val_set/774.jpg", "page_name": "774_a_0.html/", "counterbalance": 0, "groundtruth": "human", "human_groundtruth": "human", "response_gender": "female"}}, "Trial_37": {"workerID": "A3G55RJTW3BSGM", "workerData": {"country": "United States", "age": "41-45", "engagement": "5", "difficulty": "4", "mode": "live", "gender": "female", "education": "master", "condition": 0, "native": "yes"}, "trialData": {"rt": 7419, "hit": "568", "trial": 12, "response_speaker": "human", "machine_groundtruth": "mccq", "imageID": "static/dataset/coco_val_set/568.jpg", "page_name": "568_c_0.html/", "counterbalance": 0, "groundtruth": "machine", "human_groundtruth": "", "response_gender": "male"}}, "Trial_38": {"workerID": "A3G55RJTW3BSGM", "workerData": {"country": "United States", "age": "41-45", "engagement": "5", "difficulty": "4", "mode": "live", "gender": "female", "education": "master", "condition": 0, "native": "yes"}, "trialData": {"rt": 9458, "hit": "51", "trial": 13, "response_speaker": "machine", "machine_groundtruth": "", "imageID": "static/dataset/coco_val_set/51.jpg", "page_name": "51_a_0.html/", "counterbalance": 0, "groundtruth": "human", "human_groundtruth": "human", "response_gender": "male"}}, "Trial_39": {"workerID": "A3G55RJTW3BSGM", "workerData": {"country": "United States", "age": "41-45", "engagement": "5", "difficulty": "4", "mode": "live", "gender": "female", "education": "master", "condition": 0, "native": "yes"}, "trialData": {"rt": 7587, "hit": "303", "trial": 14, "response_speaker": "human", "machine_groundtruth": "google", "imageID": "static/dataset/coco_val_set/303.jpg", "page_name": "303_d_0.html/", "counterbalance": 0, "groundtruth": "machine", "human_groundtruth": "", "response_gender": "female"}}, "Trial_40": {"workerID": "A3G55RJTW3BSGM", "workerData": {"country": "United States", "age": "41-45", "engagement": "5", "difficulty": "4", "mode": "live", "gender": "female", "education": "master", "condition": 0, "native": "yes"}, "trialData": {"rt": 9307, "hit": "426", "trial": 15, "response_speaker": "human", "machine_groundtruth": "", "imageID": "static/dataset/coco_val_set/426.jpg", "page_name": "426_a_0.html/", "counterbalance": 0, "groundtruth": "human", "human_groundtruth": "human", "response_gender": "female"}}, "Trial_41": {"workerID": "A3G55RJTW3BSGM", "workerData": {"country": "United States", "age": "41-45", "engagement": "5", "difficulty": "4", "mode": "live", "gender": "female", "education": "master", "condition": 0, "native": "yes"}, "trialData": {"rt": 10881, "hit": "279", "trial": 16, "response_speaker": "human", "machine_groundtruth": "", "imageID": "static/dataset/coco_val_set/279.jpg", "page_name": "279_a_0.html/", "counterbalance": 0, "groundtruth": "human", "human_groundtruth": "human", "response_gender": "female"}}, "Trial_42": {"workerID": "A3G55RJTW3BSGM", "workerData": {"country": "United States", "age": "41-45", "engagement": "5", "difficulty": "4", "mode": "live", "gender": "female", "education": "master", "condition": 0, "native": "yes"}, "trialData": {"rt": 9201, "hit": "601", "trial": 17, "response_speaker": "human", "machine_groundtruth": "", "imageID": "static/dataset/coco_val_set/601.jpg", "page_name": "601_a_0.html/", "counterbalance": 0, "groundtruth": "human", "human_groundtruth": "human", "response_gender": "female"}}, "Trial_43": {"workerID": "A3G55RJTW3BSGM", "workerData": {"country": "United States", "age": "41-45", "engagement": "5", "difficulty": "4", "mode": "live", "gender": "female", "education": "master", "condition": 0, "native": "yes"}, "trialData": {"rt": 16482, "hit": "948", "trial": 18, "response_speaker": "machine", "machine_groundtruth": "", "imageID": "static/dataset/coco_val_set/948.jpg", "page_name": "948_a_0.html/", "counterbalance": 0, "groundtruth": "human", "human_groundtruth": "human", "response_gender": "male"}}, "Trial_44": {"workerID": "A3G55RJTW3BSGM", "workerData": {"country": "United States", "age": "41-45", "engagement": "5", "difficulty": "4", "mode": "live", "gender": "female", "education": "master", "condition": 0, "native": "yes"}, "trialData": {"rt": 14781, "hit": "1073", "trial": 19, "response_speaker": "machine", "machine_groundtruth": "azure", "imageID": "static/dataset/coco_val_set/1073.jpg", "page_name": "1073_b_0.html/", "counterbalance": 0, "groundtruth": "machine", "human_groundtruth": "", "response_gender": "male"}}, "Trial_46": {"workerID": "A3G55RJTW3BSGM", "workerData": {"country": "United States", "age": "41-45", "engagement": "5", "difficulty": "4", "mode": "live", "gender": "female", "education": "master", "condition": 0, "native": "yes"}, "trialData": {"rt": 5302, "hit": "868", "trial": 21, "response_speaker": "human", "machine_groundtruth": "mccq", "imageID": "static/dataset/coco_val_set/868.jpg", "page_name": "868_c_0.html/", "counterbalance": 0, "groundtruth": "machine", "human_groundtruth": "", "response_gender": "male"}}, "Trial_47": {"workerID": "A3G55RJTW3BSGM", "workerData": {"country": "United States", "age": "41-45", "engagement": "5", "difficulty": "4", "mode": "live", "gender": "female", "education": "master", "condition": 0, "native": "yes"}, "trialData": {"rt": 7362, "hit": "885", "trial": 22, "response_speaker": "human", "machine_groundtruth": "", "imageID": "static/dataset/coco_val_set/885.jpg", "page_name": "885_a_0.html/", "counterbalance": 0, "groundtruth": "human", "human_groundtruth": "human", "response_gender": "female"}}, "Trial_48": {"workerID": "A3G55RJTW3BSGM", "workerData": {"country": "United States", "age": "41-45", "engagement": "5", "difficulty": "4", "mode": "live", "gender": "female", "education": "master", "condition": 0, "native": "yes"}, "trialData": {"rt": 9435, "hit": "653", "trial": 23, "response_speaker": "machine", "machine_groundtruth": "google", "imageID": "static/dataset/coco_val_set/653.jpg", "page_name": "653_d_0.html/", "counterbalance": 0, "groundtruth": "machine", "human_groundtruth": "", "response_gender": "female"}}, "Trial_49": {"workerID": "A3G55RJTW3BSGM", "workerData": {"country": "United States", "age": "41-45", "engagement": "5", "difficulty": "4", "mode": "live", "gender": "female", "education": "master", "condition": 0, "native": "yes"}, "trialData": {"rt": 13925, "hit": "322", "trial": 24, "response_speaker": "machine", "machine_groundtruth": "mccq", "imageID": "static/dataset/coco_val_set/322.jpg", "page_name": "322_c_0.html/", "counterbalance": 0, "groundtruth": "machine", "human_groundtruth": "", "response_gender": "female"}}, "Trial_50": {"workerID": "A3G55RJTW3BSGM", "workerData": {"country": "United States", "age": "41-45", "engagement": "5", "difficulty": "4", "mode": "live", "gender": "female", "education": "master", "condition": 0, "native": "yes"}, "trialData": {"rt": 7521, "hit": "880", "trial": 25, "response_speaker": "machine", "machine_groundtruth": "", "imageID": "static/dataset/coco_val_set/880.jpg", "page_name": "880_a_0.html/", "counterbalance": 0, "groundtruth": "human", "human_groundtruth": "human", "response_gender": "male"}}, "Trial_51": {"workerID": "A3HNEYFOIJWPH1", "workerData": {"country": "United States", "age": "36-40", "engagement": "9", "difficulty": "8", "mode": "live", "gender": "male", "education": "high school", "condition": 0, "native": "yes"}, "trialData": {"rt": 12627, "hit": "80", "trial": 1, "response_speaker": "human", "machine_groundtruth": "", "imageID": "static/dataset/coco_val_set/80.jpg", "page_name": "80_a_0.html/", "counterbalance": 0, "groundtruth": "human", "human_groundtruth": "human", "response_gender": "female"}}, "Trial_52": {"workerID": "A3HNEYFOIJWPH1", "workerData": {"country": "United States", "age": "36-40", "engagement": "9", "difficulty": "8", "mode": "live", "gender": "male", "education": "high school", "condition": 0, "native": "yes"}, "trialData": {"rt": 9874, "hit": "386", "trial": 2, "response_speaker": "machine", "machine_groundtruth": "azure", "imageID": "static/dataset/coco_val_set/386.jpg", "page_name": "386_b_0.html/", "counterbalance": 0, "groundtruth": "machine", "human_groundtruth": "", "response_gender": "male"}}, "Trial_53": {"workerID": "A3HNEYFOIJWPH1", "workerData": {"country": "United States", "age": "36-40", "engagement": "9", "difficulty": "8", "mode": "live", "gender": "male", "education": "high school", "condition": 0, "native": "yes"}, "trialData": {"rt": 5918, "hit": "750", "trial": 3, "response_speaker": "human", "machine_groundtruth": "google", "imageID": "static/dataset/coco_val_set/750.jpg", "page_name": "750_d_0.html/", "counterbalance": 0, "groundtruth": "machine", "human_groundtruth": "", "response_gender": "male"}}, "Trial_54": {"workerID": "A3HNEYFOIJWPH1", "workerData": {"country": "United States", "age": "36-40", "engagement": "9", "difficulty": "8", "mode": "live", "gender": "male", "education": "high school", "condition": 0, "native": "yes"}, "trialData": {"rt": 7035, "hit": "780", "trial": 4, "response_speaker": "human", "machine_groundtruth": "", "imageID": "static/dataset/coco_val_set/780.jpg", "page_name": "780_a_0.html/", "counterbalance": 0, "groundtruth": "human", "human_groundtruth": "human", "response_gender": "male"}}, "Trial_55": {"workerID": "A3HNEYFOIJWPH1", "workerData": {"country": "United States", "age": "36-40", "engagement": "9", "difficulty": "8", "mode": "live", "gender": "male", "education": "high school", "condition": 0, "native": "yes"}, "trialData": {"rt": 8526, "hit": "411", "trial": 5, "response_speaker": "machine", "machine_groundtruth": "", "imageID": "static/dataset/coco_val_set/411.jpg", "page_name": "411_a_0.html/", "counterbalance": 0, "groundtruth": "human", "human_groundtruth": "human", "response_gender": "male"}}, "Trial_56": {"workerID": "A3HNEYFOIJWPH1", "workerData": {"country": "United States", "age": "36-40", "engagement": "9", "difficulty": "8", "mode": "live", "gender": "male", "education": "high school", "condition": 0, "native": "yes"}, "trialData": {"rt": 5969, "hit": "19", "trial": 6, "response_speaker": "human", "machine_groundtruth": "azure", "imageID": "static/dataset/coco_val_set/19.jpg", "page_name": "19_b_0.html/", "counterbalance": 0, "groundtruth": "machine", "human_groundtruth": "", "response_gender": "female"}}, "Trial_57": {"workerID": "A3HNEYFOIJWPH1", "workerData": {"country": "United States", "age": "36-40", "engagement": "9", "difficulty": "8", "mode": "live", "gender": "male", "education": "high school", "condition": 0, "native": "yes"}, "trialData": {"rt": 7832, "hit": "1199", "trial": 7, "response_speaker": "machine", "machine_groundtruth": "azure", "imageID": "static/dataset/coco_val_set/1199.jpg", "page_name": "1199_b_0.html/", "counterbalance": 0, "groundtruth": "machine", "human_groundtruth": "", "response_gender": "male"}}, "Trial_60": {"workerID": "A3HNEYFOIJWPH1", "workerData": {"country": "United States", "age": "36-40", "engagement": "9", "difficulty": "8", "mode": "live", "gender": "male", "education": "high school", "condition": 0, "native": "yes"}, "trialData": {"rt": 9828, "hit": "786", "trial": 10, "response_speaker": "machine", "machine_groundtruth": "google", "imageID": "static/dataset/coco_val_set/786.jpg", "page_name": "786_d_0.html/", "counterbalance": 0, "groundtruth": "machine", "human_groundtruth": "", "response_gender": "male"}}, "Trial_61": {"workerID": "A3HNEYFOIJWPH1", "workerData": {"country": "United States", "age": "36-40", "engagement": "9", "difficulty": "8", "mode": "live", "gender": "male", "education": "high school", "condition": 0, "native": "yes"}, "trialData": {"rt": 7112, "hit": "43", "trial": 11, "response_speaker": "human", "machine_groundtruth": "mccq", "imageID": "static/dataset/coco_val_set/43.jpg", "page_name": "43_c_0.html/", "counterbalance": 0, "groundtruth": "machine", "human_groundtruth": "", "response_gender": "male"}}, "Trial_62": {"workerID": "A3HNEYFOIJWPH1", "workerData": {"country": "United States", "age": "36-40", "engagement": "9", "difficulty": "8", "mode": "live", "gender": "male", "education": "high school", "condition": 0, "native": "yes"}, "trialData": {"rt": 17496, "hit": "56", "trial": 12, "response_speaker": "human", "machine_groundtruth": "", "imageID": "static/dataset/coco_val_set/56.jpg", "page_name": "56_a_0.html/", "counterbalance": 0, "groundtruth": "human", "human_groundtruth": "human", "response_gender": "female"}}, "Trial_63": {"workerID": "A3HNEYFOIJWPH1", "workerData": {"country": "United States", "age": "36-40", "engagement": "9", "difficulty": "8", "mode": "live", "gender": "male", "education": "high school", "condition": 0, "native": "yes"}, "trialData": {"rt": 6848, "hit": "801", "trial": 13, "response_speaker": "human", "machine_groundtruth": "", "imageID": "static/dataset/coco_val_set/801.jpg", "page_name": "801_a_0.html/", "counterbalance": 0, "groundtruth": "human", "human_groundtruth": "human", "response_gender": "female"}}, "Trial_64": {"workerID": "A3HNEYFOIJWPH1", "workerData": {"country": "United States", "age": "36-40", "engagement": "9", "difficulty": "8", "mode": "live", "gender": "male", "education": "high school", "condition": 0, "native": "yes"}, "trialData": {"rt": 8049, "hit": "420", "trial": 14, "response_speaker": "machine", "machine_groundtruth": "mccq", "imageID": "static/dataset/coco_val_set/420.jpg", "page_name": "420_c_0.html/", "counterbalance": 0, "groundtruth": "machine", "human_groundtruth": "", "response_gender": "male"}}, "Trial_65": {"workerID": "A3HNEYFOIJWPH1", "workerData": {"country": "United States", "age": "36-40", "engagement": "9", "difficulty": "8", "mode": "live", "gender": "male", "education": "high school", "condition": 0, "native": "yes"}, "trialData": {"rt": 8932, "hit": "1", "trial": 15, "response_speaker": "human", "machine_groundtruth": "", "imageID": "static/dataset/coco_val_set/1.jpg", "page_name": "1_a_0.html/", "counterbalance": 0, "groundtruth": "human", "human_groundtruth": "human", "response_gender": "female"}}, "Trial_66": {"workerID": "A3HNEYFOIJWPH1", "workerData": {"country": "United States", "age": "36-40", "engagement": "9", "difficulty": "8", "mode": "live", "gender": "male", "education": "high school", "condition": 0, "native": "yes"}, "trialData": {"rt": 5192, "hit": "376", "trial": 16, "response_speaker": "human", "machine_groundtruth": "", "imageID": "static/dataset/coco_val_set/376.jpg", "page_name": "376_a_0.html/", "counterbalance": 0, "groundtruth": "human", "human_groundtruth": "human", "response_gender": "female"}}, "Trial_67": {"workerID": "A3HNEYFOIJWPH1", "workerData": {"country": "United States", "age": "36-40", "engagement": "9", "difficulty": "8", "mode": "live", "gender": "male", "education": "high school", "condition": 0, "native": "yes"}, "trialData": {"rt": 6822, "hit": "369", "trial": 17, "response_speaker": "machine", "machine_groundtruth": "mccq", "imageID": "static/dataset/coco_val_set/369.jpg", "page_name": "369_c_0.html/", "counterbalance": 0, "groundtruth": "machine", "human_groundtruth": "", "response_gender": "male"}}, "Trial_68": {"workerID": "A3HNEYFOIJWPH1", "workerData": {"country": "United States", "age": "36-40", "engagement": "9", "difficulty": "8", "mode": "live", "gender": "male", "education": "high school", "condition": 0, "native": "yes"}, "trialData": {"rt": 9647, "hit": "692", "trial": 18, "response_speaker": "human", "machine_groundtruth": "google", "imageID": "static/dataset/coco_val_set/692.jpg", "page_name": "692_d_0.html/", "counterbalance": 0, "groundtruth": "machine", "human_groundtruth": "", "response_gender": "female"}}, "Trial_69": {"workerID": "A3HNEYFOIJWPH1", "workerData": {"country": "United States", "age": "36-40", "engagement": "9", "difficulty": "8", "mode": "live", "gender": "male", "education": "high school", "condition": 0, "native": "yes"}, "trialData": {"rt": 11047, "hit": "565", "trial": 19, "response_speaker": "human", "machine_groundtruth": "", "imageID": "static/dataset/coco_val_set/565.jpg", "page_name": "565_a_0.html/", "counterbalance": 0, "groundtruth": "human", "human_groundtruth": "human", "response_gender": "female"}}, "Trial_70": {"workerID": "A3HNEYFOIJWPH1", "workerData": {"country": "United States", "age": "36-40", "engagement": "9", "difficulty": "8", "mode": "live", "gender": "male", "education": "high school", "condition": 0, "native": "yes"}, "trialData": {"rt": 8943, "hit": "472", "trial": 20, "response_speaker": "human", "machine_groundtruth": "", "imageID": "static/dataset/coco_val_set/472.jpg", "page_name": "472_a_0.html/", "counterbalance": 0, "groundtruth": "human", "human_groundtruth": "human", "response_gender": "female"}}, "Trial_71": {"workerID": "A3HNEYFOIJWPH1", "workerData": {"country": "United States", "age": "36-40", "engagement": "9", "difficulty": "8", "mode": "live", "gender": "male", "education": "high school", "condition": 0, "native": "yes"}, "trialData": {"rt": 21892, "hit": "568", "trial": 21, "response_speaker": "human", "machine_groundtruth": "azure", "imageID": "static/dataset/coco_val_set/568.jpg", "page_name": "568_b_0.html/", "counterbalance": 0, "groundtruth": "machine", "human_groundtruth": "", "response_gender": "male"}}, "Trial_72": {"workerID": "A3HNEYFOIJWPH1", "workerData": {"country": "United States", "age": "36-40", "engagement": "9", "difficulty": "8", "mode": "live", "gender": "male", "education": "high school", "condition": 0, "native": "yes"}, "trialData": {"rt": 27713, "hit": "536", "trial": 22, "response_speaker": "human", "machine_groundtruth": "", "imageID": "static/dataset/coco_val_set/536.jpg", "page_name": "536_a_0.html/", "counterbalance": 0, "groundtruth": "human", "human_groundtruth": "human", "response_gender": "female"}}, "Trial_73": {"workerID": "A3HNEYFOIJWPH1", "workerData": {"country": "United States", "age": "36-40", "engagement": "9", "difficulty": "8", "mode": "live", "gender": "male", "education": "high school", "condition": 0, "native": "yes"}, "trialData": {"rt": 5774, "hit": "450", "trial": 23, "response_speaker": "human", "machine_groundtruth": "", "imageID": "static/dataset/coco_val_set/450.jpg", "page_name": "450_a_0.html/", "counterbalance": 0, "groundtruth": "human", "human_groundtruth": "human", "response_gender": "female"}}, "Trial_74": {"workerID": "A3HNEYFOIJWPH1", "workerData": {"country": "United States", "age": "36-40", "engagement": "9", "difficulty": "8", "mode": "live", "gender": "male", "education": "high school", "condition": 0, "native": "yes"}, "trialData": {"rt": 9467, "hit": "1162", "trial": 24, "response_speaker": "human", "machine_groundtruth": "", "imageID": "static/dataset/coco_val_set/1162.jpg", "page_name": "1162_a_0.html/", "counterbalance": 0, "groundtruth": "human", "human_groundtruth": "human", "response_gender": "male"}}, "Trial_75": {"workerID": "A3HNEYFOIJWPH1", "workerData": {"country": "United States", "age": "36-40", "engagement": "9", "difficulty": "8", "mode": "live", "gender": "male", "education": "high school", "condition": 0, "native": "yes"}, "trialData": {"rt": 6083, "hit": "36", "trial": 25, "response_speaker": "human", "machine_groundtruth": "azure", "imageID": "static/dataset/coco_val_set/36.jpg", "page_name": "36_b_0.html/", "counterbalance": 0, "groundtruth": "machine", "human_groundtruth": "", "response_gender": "male"}}, "Trial_76": {"workerID": "AQAXDL1INQC9Q", "workerData": {"country": "United States", "age": "45-50", "engagement": "5", "difficulty": "3", "mode": "live", "gender": "female", "education": "high school", "condition": 0, "native": "yes"}, "trialData": {"rt": 12528, "hit": "920", "trial": 1, "response_speaker": "human", "machine_groundtruth": "", "imageID": "static/dataset/coco_val_set/920.jpg", "page_name": "920_a_0.html/", "counterbalance": 0, "groundtruth": "human", "human_groundtruth": "human", "response_gender": "male"}}, "Trial_77": {"workerID": "AQAXDL1INQC9Q", "workerData": {"country": "United States", "age": "45-50", "engagement": "5", "difficulty": "3", "mode": "live", "gender": "female", "education": "high school", "condition": 0, "native": "yes"}, "trialData": {"rt": 9256, "hit": "1108", "trial": 2, "response_speaker": "human", "machine_groundtruth": "", "imageID": "static/dataset/coco_val_set/1108.jpg", "page_name": "1108_a_0.html/", "counterbalance": 0, "groundtruth": "human", "human_groundtruth": "human", "response_gender": "male"}}, "Trial_78": {"workerID": "AQAXDL1INQC9Q", "workerData": {"country": "United States", "age": "45-50", "engagement": "5", "difficulty": "3", "mode": "live", "gender": "female", "education": "high school", "condition": 0, "native": "yes"}, "trialData": {"rt": 22363, "hit": "376", "trial": 3, "response_speaker": "machine", "machine_groundtruth": "google", "imageID": "static/dataset/coco_val_set/376.jpg", "page_name": "376_d_0.html/", "counterbalance": 0, "groundtruth": "machine", "human_groundtruth": "", "response_gender": "male"}}, "Trial_79": {"workerID": "AQAXDL1INQC9Q", "workerData": {"country": "United States", "age": "45-50", "engagement": "5", "difficulty": "3", "mode": "live", "gender": "female", "education": "high school", "condition": 0, "native": "yes"}, "trialData": {"rt": 10572, "hit": "126", "trial": 4, "response_speaker": "machine", "machine_groundtruth": "mccq", "imageID": "static/dataset/coco_val_set/126.jpg", "page_name": "126_c_0.html/", "counterbalance": 0, "groundtruth": "machine", "human_groundtruth": "", "response_gender": "male"}}, "Trial_80": {"workerID": "AQAXDL1INQC9Q", "workerData": {"country": "United States", "age": "45-50", "engagement": "5", "difficulty": "3", "mode": "live", "gender": "female", "education": "high school", "condition": 0, "native": "yes"}, "trialData": {"rt": 17997, "hit": "1074", "trial": 5, "response_speaker": "human", "machine_groundtruth": "google", "imageID": "static/dataset/coco_val_set/1074.jpg", "page_name": "1074_d_0.html/", "counterbalance": 0, "groundtruth": "machine", "human_groundtruth": "", "response_gender": "male"}}, "Trial_81": {"workerID": "AQAXDL1INQC9Q", "workerData": {"country": "United States", "age": "45-50", "engagement": "5", "difficulty": "3", "mode": "live", "gender": "female", "education": "high school", "condition": 0, "native": "yes"}, "trialData": {"rt": 19747, "hit": "663", "trial": 6, "response_speaker": "human", "machine_groundtruth": "azure", "imageID": "static/dataset/coco_val_set/663.jpg", "page_name": "663_b_0.html/", "counterbalance": 0, "groundtruth": "machine", "human_groundtruth": "", "response_gender": "female"}}, "Trial_82": {"workerID": "AQAXDL1INQC9Q", "workerData": {"country": "United States", "age": "45-50", "engagement": "5", "difficulty": "3", "mode": "live", "gender": "female", "education": "high school", "condition": 0, "native": "yes"}, "trialData": {"rt": 19249, "hit": "768", "trial": 7, "response_speaker": "machine", "machine_groundtruth": "google", "imageID": "static/dataset/coco_val_set/768.jpg", "page_name": "768_d_0.html/", "counterbalance": 0, "groundtruth": "machine", "human_groundtruth": "", "response_gender": "female"}}, "Trial_83": {"workerID": "AQAXDL1INQC9Q", "workerData": {"country": "United States", "age": "45-50", "engagement": "5", "difficulty": "3", "mode": "live", "gender": "female", "education": "high school", "condition": 0, "native": "yes"}, "trialData": {"rt": 16718, "hit": "122", "trial": 8, "response_speaker": "human", "machine_groundtruth": "mccq", "imageID": "static/dataset/coco_val_set/122.jpg", "page_name": "122_c_0.html/", "counterbalance": 0, "groundtruth": "machine", "human_groundtruth": "", "response_gender": "female"}}, "Trial_84": {"workerID": "AQAXDL1INQC9Q", "workerData": {"country": "United States", "age": "45-50", "engagement": "5", "difficulty": "3", "mode": "live", "gender": "female", "education": "high school", "condition": 0, "native": "yes"}, "trialData": {"rt": 16681, "hit": "1197", "trial": 9, "response_speaker": "human", "machine_groundtruth": "", "imageID": "static/dataset/coco_val_set/1197.jpg", "page_name": "1197_a_0.html/", "counterbalance": 0, "groundtruth": "human", "human_groundtruth": "human", "response_gender": "female"}}, "Trial_85": {"workerID": "AQAXDL1INQC9Q", "workerData": {"country": "United States", "age": "45-50", "engagement": "5", "difficulty": "3", "mode": "live", "gender": "female", "education": "high school", "condition": 0, "native": "yes"}, "trialData": {"rt": 11890, "hit": "970", "trial": 10, "response_speaker": "human", "machine_groundtruth": "", "imageID": "static/dataset/coco_val_set/970.jpg", "page_name": "970_a_0.html/", "counterbalance": 0, "groundtruth": "human", "human_groundtruth": "human", "response_gender": "male"}}, "Trial_86": {"workerID": "AQAXDL1INQC9Q", "workerData": {"country": "United States", "age": "45-50", "engagement": "5", "difficulty": "3", "mode": "live", "gender": "female", "education": "high school", "condition": 0, "native": "yes"}, "trialData": {"rt": 11170, "hit": "608", "trial": 11, "response_speaker": "human", "machine_groundtruth": "", "imageID": "static/dataset/coco_val_set/608.jpg", "page_name": "608_a_0.html/", "counterbalance": 0, "groundtruth": "human", "human_groundtruth": "human", "response_gender": "male"}}, "Trial_87": {"workerID": "AQAXDL1INQC9Q", "workerData": {"country": "United States", "age": "45-50", "engagement": "5", "difficulty": "3", "mode": "live", "gender": "female", "education": "high school", "condition": 0, "native": "yes"}, "trialData": {"rt": 15038, "hit": "1124", "trial": 12, "response_speaker": "human", "machine_groundtruth": "azure", "imageID": "static/dataset/coco_val_set/1124.jpg", "page_name": "1124_b_0.html/", "counterbalance": 0, "groundtruth": "machine", "human_groundtruth": "", "response_gender": "male"}}, "Trial_88": {"workerID": "AQAXDL1INQC9Q", "workerData": {"country": "United States", "age": "45-50", "engagement": "5", "difficulty": "3", "mode": "live", "gender": "female", "education": "high school", "condition": 0, "native": "yes"}, "trialData": {"rt": 10437, "hit": "949", "trial": 13, "response_speaker": "human", "machine_groundtruth": "", "imageID": "static/dataset/coco_val_set/949.jpg", "page_name": "949_a_0.html/", "counterbalance": 0, "groundtruth": "human", "human_groundtruth": "human", "response_gender": "male"}}, "Trial_89": {"workerID": "AQAXDL1INQC9Q", "workerData": {"country": "United States", "age": "45-50", "engagement": "5", "difficulty": "3", "mode": "live", "gender": "female", "education": "high school", "condition": 0, "native": "yes"}, "trialData": {"rt": 15486, "hit": "466", "trial": 14, "response_speaker": "human", "machine_groundtruth": "", "imageID": "static/dataset/coco_val_set/466.jpg", "page_name": "466_a_0.html/", "counterbalance": 0, "groundtruth": "human", "human_groundtruth": "human", "response_gender": "male"}}, "Trial_90": {"workerID": "AQAXDL1INQC9Q", "workerData": {"country": "United States", "age": "45-50", "engagement": "5", "difficulty": "3", "mode": "live", "gender": "female", "education": "high school", "condition": 0, "native": "yes"}, "trialData": {"rt": 11288, "hit": "1066", "trial": 15, "response_speaker": "machine", "machine_groundtruth": "", "imageID": "static/dataset/coco_val_set/1066.jpg", "page_name": "1066_a_0.html/", "counterbalance": 0, "groundtruth": "human", "human_groundtruth": "human", "response_gender": "male"}}, "Trial_91": {"workerID": "AQAXDL1INQC9Q", "workerData": {"country": "United States", "age": "45-50", "engagement": "5", "difficulty": "3", "mode": "live", "gender": "female", "education": "high school", "condition": 0, "native": "yes"}, "trialData": {"rt": 19747, "hit": "889", "trial": 16, "response_speaker": "human", "machine_groundtruth": "mccq", "imageID": "static/dataset/coco_val_set/889.jpg", "page_name": "889_c_0.html/", "counterbalance": 0, "groundtruth": "machine", "human_groundtruth": "", "response_gender": "male"}}, "Trial_93": {"workerID": "AQAXDL1INQC9Q", "workerData": {"country": "United States", "age": "45-50", "engagement": "5", "difficulty": "3", "mode": "live", "gender": "female", "education": "high school", "condition": 0, "native": "yes"}, "trialData": {"rt": 15271, "hit": "58", "trial": 18, "response_speaker": "human", "machine_groundtruth": "", "imageID": "static/dataset/coco_val_set/58.jpg", "page_name": "58_a_0.html/", "counterbalance": 0, "groundtruth": "human", "human_groundtruth": "human", "response_gender": "male"}}, "Trial_94": {"workerID": "AQAXDL1INQC9Q", "workerData": {"country": "United States", "age": "45-50", "engagement": "5", "difficulty": "3", "mode": "live", "gender": "female", "education": "high school", "condition": 0, "native": "yes"}, "trialData": {"rt": 12355, "hit": "128", "trial": 19, "response_speaker": "human", "machine_groundtruth": "", "imageID": "static/dataset/coco_val_set/128.jpg", "page_name": "128_a_0.html/", "counterbalance": 0, "groundtruth": "human", "human_groundtruth": "human", "response_gender": "male"}}, "Trial_95": {"workerID": "AQAXDL1INQC9Q", "workerData": {"country": "United States", "age": "45-50", "engagement": "5", "difficulty": "3", "mode": "live", "gender": "female", "education": "high school", "condition": 0, "native": "yes"}, "trialData": {"rt": 13636, "hit": "1031", "trial": 20, "response_speaker": "human", "machine_groundtruth": "azure", "imageID": "static/dataset/coco_val_set/1031.jpg", "page_name": "1031_b_0.html/", "counterbalance": 0, "groundtruth": "machine", "human_groundtruth": "", "response_gender": "female"}}, "Trial_96": {"workerID": "AQAXDL1INQC9Q", "workerData": {"country": "United States", "age": "45-50", "engagement": "5", "difficulty": "3", "mode": "live", "gender": "female", "education": "high school", "condition": 0, "native": "yes"}, "trialData": {"rt": 8175, "hit": "773", "trial": 21, "response_speaker": "human", "machine_groundtruth": "mccq", "imageID": "static/dataset/coco_val_set/773.jpg", "page_name": "773_c_0.html/", "counterbalance": 0, "groundtruth": "machine", "human_groundtruth": "", "response_gender": "male"}}, "Trial_100": {"workerID": "AQAXDL1INQC9Q", "workerData": {"country": "United States", "age": "45-50", "engagement": "5", "difficulty": "3", "mode": "live", "gender": "female", "education": "high school", "condition": 0, "native": "yes"}, "trialData": {"rt": 12522, "hit": "1090", "trial": 25, "response_speaker": "human", "machine_groundtruth": "", "imageID": "static/dataset/coco_val_set/1090.jpg", "page_name": "1090_a_0.html/", "counterbalance": 0, "groundtruth": "human", "human_groundtruth": "human", "response_gender": "male"}}, "Trial_101": {"workerID": "A36SM7QM8OK3H6", "workerData": {"country": "United States", "age": "31-35", "engagement": "9", "difficulty": "5", "mode": "live", "gender": "female", "education": "bachelor", "condition": 0, "native": "yes"}, "trialData": {"rt": 14130, "hit": "596", "trial": 1, "response_speaker": "machine", "machine_groundtruth": "mccq", "imageID": "static/dataset/coco_val_set/596.jpg", "page_name": "596_c_0.html/", "counterbalance": 0, "groundtruth": "machine", "human_groundtruth": "", "response_gender": "male"}}, "Trial_102": {"workerID": "A36SM7QM8OK3H6", "workerData": {"country": "United States", "age": "31-35", "engagement": "9", "difficulty": "5", "mode": "live", "gender": "female", "education": "bachelor", "condition": 0, "native": "yes"}, "trialData": {"rt": 9748, "hit": "51", "trial": 2, "response_speaker": "human", "machine_groundtruth": "google", "imageID": "static/dataset/coco_val_set/51.jpg", "page_name": "51_d_0.html/", "counterbalance": 0, "groundtruth": "machine", "human_groundtruth": "", "response_gender": "male"}}, "Trial_103": {"workerID": "A36SM7QM8OK3H6", "workerData": {"country": "United States", "age": "31-35", "engagement": "9", "difficulty": "5", "mode": "live", "gender": "female", "education": "bachelor", "condition": 0, "native": "yes"}, "trialData": {"rt": 5349, "hit": "395", "trial": 3, "response_speaker": "machine", "machine_groundtruth": "mccq", "imageID": "static/dataset/coco_val_set/395.jpg", "page_name": "395_c_0.html/", "counterbalance": 0, "groundtruth": "machine", "human_groundtruth": "", "response_gender": "male"}}, "Trial_105": {"workerID": "A36SM7QM8OK3H6", "workerData": {"country": "United States", "age": "31-35", "engagement": "9", "difficulty": "5", "mode": "live", "gender": "female", "education": "bachelor", "condition": 0, "native": "yes"}, "trialData": {"rt": 8944, "hit": "764", "trial": 5, "response_speaker": "machine", "machine_groundtruth": "google", "imageID": "static/dataset/coco_val_set/764.jpg", "page_name": "764_d_0.html/", "counterbalance": 0, "groundtruth": "machine", "human_groundtruth": "", "response_gender": "male"}}, "Trial_106": {"workerID": "A36SM7QM8OK3H6", "workerData": {"country": "United States", "age": "31-35", "engagement": "9", "difficulty": "5", "mode": "live", "gender": "female", "education": "bachelor", "condition": 0, "native": "yes"}, "trialData": {"rt": 6239, "hit": "70", "trial": 6, "response_speaker": "machine", "machine_groundtruth": "azure", "imageID": "static/dataset/coco_val_set/70.jpg", "page_name": "70_b_0.html/", "counterbalance": 0, "groundtruth": "machine", "human_groundtruth": "", "response_gender": "female"}}, "Trial_107": {"workerID": "A36SM7QM8OK3H6", "workerData": {"country": "United States", "age": "31-35", "engagement": "9", "difficulty": "5", "mode": "live", "gender": "female", "education": "bachelor", "condition": 0, "native": "yes"}, "trialData": {"rt": 5371, "hit": "111", "trial": 7, "response_speaker": "human", "machine_groundtruth": "google", "imageID": "static/dataset/coco_val_set/111.jpg", "page_name": "111_d_0.html/", "counterbalance": 0, "groundtruth": "machine", "human_groundtruth": "", "response_gender": "female"}}, "Trial_108": {"workerID": "A36SM7QM8OK3H6", "workerData": {"country": "United States", "age": "31-35", "engagement": "9", "difficulty": "5", "mode": "live", "gender": "female", "education": "bachelor", "condition": 0, "native": "yes"}, "trialData": {"rt": 11968, "hit": "34", "trial": 8, "response_speaker": "human", "machine_groundtruth": "google", "imageID": "static/dataset/coco_val_set/34.jpg", "page_name": "34_d_0.html/", "counterbalance": 0, "groundtruth": "machine", "human_groundtruth": "", "response_gender": "female"}}, "Trial_109": {"workerID": "A36SM7QM8OK3H6", "workerData": {"country": "United States", "age": "31-35", "engagement": "9", "difficulty": "5", "mode": "live", "gender": "female", "education": "bachelor", "condition": 0, "native": "yes"}, "trialData": {"rt": 6847, "hit": "23", "trial": 9, "response_speaker": "human", "machine_groundtruth": "google", "imageID": "static/dataset/coco_val_set/23.jpg", "page_name": "23_d_0.html/", "counterbalance": 0, "groundtruth": "machine", "human_groundtruth": "", "response_gender": "female"}}, "Trial_110": {"workerID": "A36SM7QM8OK3H6", "workerData": {"country": "United States", "age": "31-35", "engagement": "9", "difficulty": "5", "mode": "live", "gender": "female", "education": "bachelor", "condition": 0, "native": "yes"}, "trialData": {"rt": 5144, "hit": "1109", "trial": 10, "response_speaker": "machine", "machine_groundtruth": "mccq", "imageID": "static/dataset/coco_val_set/1109.jpg", "page_name": "1109_c_0.html/", "counterbalance": 0, "groundtruth": "machine", "human_groundtruth": "", "response_gender": "male"}}, "Trial_111": {"workerID": "A36SM7QM8OK3H6", "workerData": {"country": "United States", "age": "31-35", "engagement": "9", "difficulty": "5", "mode": "live", "gender": "female", "education": "bachelor", "condition": 0, "native": "yes"}, "trialData": {"rt": 4471, "hit": "1155", "trial": 11, "response_speaker": "human", "machine_groundtruth": "", "imageID": "static/dataset/coco_val_set/1155.jpg", "page_name": "1155_a_0.html/", "counterbalance": 0, "groundtruth": "human", "human_groundtruth": "human", "response_gender": "male"}}, "Trial_112": {"workerID": "A36SM7QM8OK3H6", "workerData": {"country": "United States", "age": "31-35", "engagement": "9", "difficulty": "5", "mode": "live", "gender": "female", "education": "bachelor", "condition": 0, "native": "yes"}, "trialData": {"rt": 8213, "hit": "242", "trial": 12, "response_speaker": "human", "machine_groundtruth": "mccq", "imageID": "static/dataset/coco_val_set/242.jpg", "page_name": "242_c_0.html/", "counterbalance": 0, "groundtruth": "machine", "human_groundtruth": "", "response_gender": "female"}}, "Trial_113": {"workerID": "A36SM7QM8OK3H6", "workerData": {"country": "United States", "age": "31-35", "engagement": "9", "difficulty": "5", "mode": "live", "gender": "female", "education": "bachelor", "condition": 0, "native": "yes"}, "trialData": {"rt": 6176, "hit": "514", "trial": 13, "response_speaker": "machine", "machine_groundtruth": "google", "imageID": "static/dataset/coco_val_set/514.jpg", "page_name": "514_d_0.html/", "counterbalance": 0, "groundtruth": "machine", "human_groundtruth": "", "response_gender": "male"}}, "Trial_114": {"workerID": "A36SM7QM8OK3H6", "workerData": {"country": "United States", "age": "31-35", "engagement": "9", "difficulty": "5", "mode": "live", "gender": "female", "education": "bachelor", "condition": 0, "native": "yes"}, "trialData": {"rt": 5445, "hit": "667", "trial": 14, "response_speaker": "human", "machine_groundtruth": "", "imageID": "static/dataset/coco_val_set/667.jpg", "page_name": "667_a_0.html/", "counterbalance": 0, "groundtruth": "human", "human_groundtruth": "human", "response_gender": "female"}}, "Trial_115": {"workerID": "A36SM7QM8OK3H6", "workerData": {"country": "United States", "age": "31-35", "engagement": "9", "difficulty": "5", "mode": "live", "gender": "female", "education": "bachelor", "condition": 0, "native": "yes"}, "trialData": {"rt": 4966, "hit": "1176", "trial": 15, "response_speaker": "machine", "machine_groundtruth": "", "imageID": "static/dataset/coco_val_set/1176.jpg", "page_name": "1176_a_0.html/", "counterbalance": 0, "groundtruth": "human", "human_groundtruth": "human", "response_gender": "male"}}, "Trial_116": {"workerID": "A36SM7QM8OK3H6", "workerData": {"country": "United States", "age": "31-35", "engagement": "9", "difficulty": "5", "mode": "live", "gender": "female", "education": "bachelor", "condition": 0, "native": "yes"}, "trialData": {"rt": 4280, "hit": "1100", "trial": 16, "response_speaker": "machine", "machine_groundtruth": "", "imageID": "static/dataset/coco_val_set/1100.jpg", "page_name": "1100_a_0.html/", "counterbalance": 0, "groundtruth": "human", "human_groundtruth": "human", "response_gender": "male"}}, "Trial_117": {"workerID": "A36SM7QM8OK3H6", "workerData": {"country": "United States", "age": "31-35", "engagement": "9", "difficulty": "5", "mode": "live", "gender": "female", "education": "bachelor", "condition": 0, "native": "yes"}, "trialData": {"rt": 5559, "hit": "990", "trial": 17, "response_speaker": "human", "machine_groundtruth": "mccq", "imageID": "static/dataset/coco_val_set/990.jpg", "page_name": "990_c_0.html/", "counterbalance": 0, "groundtruth": "machine", "human_groundtruth": "", "response_gender": "female"}}, "Trial_118": {"workerID": "A36SM7QM8OK3H6", "workerData": {"country": "United States", "age": "31-35", "engagement": "9", "difficulty": "5", "mode": "live", "gender": "female", "education": "bachelor", "condition": 0, "native": "yes"}, "trialData": {"rt": 4356, "hit": "420", "trial": 18, "response_speaker": "machine", "machine_groundtruth": "mccq", "imageID": "static/dataset/coco_val_set/420.jpg", "page_name": "420_c_0.html/", "counterbalance": 0, "groundtruth": "machine", "human_groundtruth": "", "response_gender": "female"}}, "Trial_119": {"workerID": "A36SM7QM8OK3H6", "workerData": {"country": "United States", "age": "31-35", "engagement": "9", "difficulty": "5", "mode": "live", "gender": "female", "education": "bachelor", "condition": 0, "native": "yes"}, "trialData": {"rt": 5112, "hit": "749", "trial": 19, "response_speaker": "machine", "machine_groundtruth": "", "imageID": "static/dataset/coco_val_set/749.jpg", "page_name": "749_a_0.html/", "counterbalance": 0, "groundtruth": "human", "human_groundtruth": "human", "response_gender": "male"}}, "Trial_120": {"workerID": "A36SM7QM8OK3H6", "workerData": {"country": "United States", "age": "31-35", "engagement": "9", "difficulty": "5", "mode": "live", "gender": "female", "education": "bachelor", "condition": 0, "native": "yes"}, "trialData": {"rt": 7058, "hit": "333", "trial": 20, "response_speaker": "human", "machine_groundtruth": "", "imageID": "static/dataset/coco_val_set/333.jpg", "page_name": "333_a_0.html/", "counterbalance": 0, "groundtruth": "human", "human_groundtruth": "human", "response_gender": "male"}}, "Trial_121": {"workerID": "A36SM7QM8OK3H6", "workerData": {"country": "United States", "age": "31-35", "engagement": "9", "difficulty": "5", "mode": "live", "gender": "female", "education": "bachelor", "condition": 0, "native": "yes"}, "trialData": {"rt": 5011, "hit": "524", "trial": 21, "response_speaker": "machine", "machine_groundtruth": "google", "imageID": "static/dataset/coco_val_set/524.jpg", "page_name": "524_d_0.html/", "counterbalance": 0, "groundtruth": "machine", "human_groundtruth": "", "response_gender": "female"}}, "Trial_122": {"workerID": "A36SM7QM8OK3H6", "workerData": {"country": "United States", "age": "31-35", "engagement": "9", "difficulty": "5", "mode": "live", "gender": "female", "education": "bachelor", "condition": 0, "native": "yes"}, "trialData": {"rt": 7971, "hit": "56", "trial": 22, "response_speaker": "human", "machine_groundtruth": "", "imageID": "static/dataset/coco_val_set/56.jpg", "page_name": "56_a_0.html/", "counterbalance": 0, "groundtruth": "human", "human_groundtruth": "human", "response_gender": "male"}}, "Trial_123": {"workerID": "A36SM7QM8OK3H6", "workerData": {"country": "United States", "age": "31-35", "engagement": "9", "difficulty": "5", "mode": "live", "gender": "female", "education": "bachelor", "condition": 0, "native": "yes"}, "trialData": {"rt": 4558, "hit": "30", "trial": 23, "response_speaker": "human", "machine_groundtruth": "", "imageID": "static/dataset/coco_val_set/30.jpg", "page_name": "30_a_0.html/", "counterbalance": 0, "groundtruth": "human", "human_groundtruth": "human", "response_gender": "female"}}, "Trial_124": {"workerID": "A36SM7QM8OK3H6", "workerData": {"country": "United States", "age": "31-35", "engagement": "9", "difficulty": "5", "mode": "live", "gender": "female", "education": "bachelor", "condition": 0, "native": "yes"}, "trialData": {"rt": 9613, "hit": "314", "trial": 24, "response_speaker": "machine", "machine_groundtruth": "azure", "imageID": "static/dataset/coco_val_set/314.jpg", "page_name": "314_b_0.html/", "counterbalance": 0, "groundtruth": "machine", "human_groundtruth": "", "response_gender": "male"}}, "Trial_126": {"workerID": "A3FGT6EU39C6S4", "workerData": {"country": "United States", "age": "45-50", "engagement": "7", "difficulty": "6", "mode": "live", "gender": "male", "education": "bachelor", "condition": 0, "native": "yes"}, "trialData": {"rt": 45152, "hit": "617", "trial": 1, "response_speaker": "human", "machine_groundtruth": "google", "imageID": "static/dataset/coco_val_set/617.jpg", "page_name": "617_d_0.html/", "counterbalance": 0, "groundtruth": "machine", "human_groundtruth": "", "response_gender": "female"}}, "Trial_127": {"workerID": "A3FGT6EU39C6S4", "workerData": {"country": "United States", "age": "45-50", "engagement": "7", "difficulty": "6", "mode": "live", "gender": "male", "education": "bachelor", "condition": 0, "native": "yes"}, "trialData": {"rt": 15754, "hit": "182", "trial": 2, "response_speaker": "human", "machine_groundtruth": "google", "imageID": "static/dataset/coco_val_set/182.jpg", "page_name": "182_d_0.html/", "counterbalance": 0, "groundtruth": "machine", "human_groundtruth": "", "response_gender": "female"}}, "Trial_128": {"workerID": "A3FGT6EU39C6S4", "workerData": {"country": "United States", "age": "45-50", "engagement": "7", "difficulty": "6", "mode": "live", "gender": "male", "education": "bachelor", "condition": 0, "native": "yes"}, "trialData": {"rt": 15730, "hit": "496", "trial": 3, "response_speaker": "machine", "machine_groundtruth": "google", "imageID": "static/dataset/coco_val_set/496.jpg", "page_name": "496_d_0.html/", "counterbalance": 0, "groundtruth": "machine", "human_groundtruth": "", "response_gender": "female"}}, "Trial_129": {"workerID": "A3FGT6EU39C6S4", "workerData": {"country": "United States", "age": "45-50", "engagement": "7", "difficulty": "6", "mode": "live", "gender": "male", "education": "bachelor", "condition": 0, "native": "yes"}, "trialData": {"rt": 7427, "hit": "631", "trial": 4, "response_speaker": "human", "machine_groundtruth": "", "imageID": "static/dataset/coco_val_set/631.jpg", "page_name": "631_a_0.html/", "counterbalance": 0, "groundtruth": "human", "human_groundtruth": "human", "response_gender": "male"}}, "Trial_130": {"workerID": "A3FGT6EU39C6S4", "workerData": {"country": "United States", "age": "45-50", "engagement": "7", "difficulty": "6", "mode": "live", "gender": "male", "education": "bachelor", "condition": 0, "native": "yes"}, "trialData": {"rt": 12858, "hit": "1129", "trial": 5, "response_speaker": "machine", "machine_groundtruth": "google", "imageID": "static/dataset/coco_val_set/1129.jpg", "page_name": "1129_d_0.html/", "counterbalance": 0, "groundtruth": "machine", "human_groundtruth": "", "response_gender": "male"}}, "Trial_131": {"workerID": "A3FGT6EU39C6S4", "workerData": {"country": "United States", "age": "45-50", "engagement": "7", "difficulty": "6", "mode": "live", "gender": "male", "education": "bachelor", "condition": 0, "native": "yes"}, "trialData": {"rt": 6938, "hit": "699", "trial": 6, "response_speaker": "human", "machine_groundtruth": "", "imageID": "static/dataset/coco_val_set/699.jpg", "page_name": "699_a_0.html/", "counterbalance": 0, "groundtruth": "human", "human_groundtruth": "human", "response_gender": "male"}}, "Trial_132": {"workerID": "A3FGT6EU39C6S4", "workerData": {"country": "United States", "age": "45-50", "engagement": "7", "difficulty": "6", "mode": "live", "gender": "male", "education": "bachelor", "condition": 0, "native": "yes"}, "trialData": {"rt": 7109, "hit": "829", "trial": 7, "response_speaker": "human", "machine_groundtruth": "", "imageID": "static/dataset/coco_val_set/829.jpg", "page_name": "829_a_0.html/", "counterbalance": 0, "groundtruth": "human", "human_groundtruth": "human", "response_gender": "female"}}, "Trial_133": {"workerID": "A3FGT6EU39C6S4", "workerData": {"country": "United States", "age": "45-50", "engagement": "7", "difficulty": "6", "mode": "live", "gender": "male", "education": "bachelor", "condition": 0, "native": "yes"}, "trialData": {"rt": 9230, "hit": "613", "trial": 8, "response_speaker": "machine", "machine_groundtruth": "azure", "imageID": "static/dataset/coco_val_set/613.jpg", "page_name": "613_b_0.html/", "counterbalance": 0, "groundtruth": "machine", "human_groundtruth": "", "response_gender": "male"}}, "Trial_134": {"workerID": "A3FGT6EU39C6S4", "workerData": {"country": "United States", "age": "45-50", "engagement": "7", "difficulty": "6", "mode": "live", "gender": "male", "education": "bachelor", "condition": 0, "native": "yes"}, "trialData": {"rt": 9649, "hit": "116", "trial": 9, "response_speaker": "machine", "machine_groundtruth": "", "imageID": "static/dataset/coco_val_set/116.jpg", "page_name": "116_a_0.html/", "counterbalance": 0, "groundtruth": "human", "human_groundtruth": "human", "response_gender": "male"}}, "Trial_135": {"workerID": "A3FGT6EU39C6S4", "workerData": {"country": "United States", "age": "45-50", "engagement": "7", "difficulty": "6", "mode": "live", "gender": "male", "education": "bachelor", "condition": 0, "native": "yes"}, "trialData": {"rt": 9666, "hit": "299", "trial": 10, "response_speaker": "machine", "machine_groundtruth": "", "imageID": "static/dataset/coco_val_set/299.jpg", "page_name": "299_a_0.html/", "counterbalance": 0, "groundtruth": "human", "human_groundtruth": "human", "response_gender": "male"}}, "Trial_136": {"workerID": "A3FGT6EU39C6S4", "workerData": {"country": "United States", "age": "45-50", "engagement": "7", "difficulty": "6", "mode": "live", "gender": "male", "education": "bachelor", "condition": 0, "native": "yes"}, "trialData": {"rt": 7998, "hit": "528", "trial": 11, "response_speaker": "machine", "machine_groundtruth": "mccq", "imageID": "static/dataset/coco_val_set/528.jpg", "page_name": "528_c_0.html/", "counterbalance": 0, "groundtruth": "machine", "human_groundtruth": "", "response_gender": "female"}}, "Trial_137": {"workerID": "A3FGT6EU39C6S4", "workerData": {"country": "United States", "age": "45-50", "engagement": "7", "difficulty": "6", "mode": "live", "gender": "male", "education": "bachelor", "condition": 0, "native": "yes"}, "trialData": {"rt": 9896, "hit": "54", "trial": 12, "response_speaker": "human", "machine_groundtruth": "google", "imageID": "static/dataset/coco_val_set/54.jpg", "page_name": "54_d_0.html/", "counterbalance": 0, "groundtruth": "machine", "human_groundtruth": "", "response_gender": "female"}}, "Trial_138": {"workerID": "A3FGT6EU39C6S4", "workerData": {"country": "United States", "age": "45-50", "engagement": "7", "difficulty": "6", "mode": "live", "gender": "male", "education": "bachelor", "condition": 0, "native": "yes"}, "trialData": {"rt": 11784, "hit": "787", "trial": 13, "response_speaker": "human", "machine_groundtruth": "google", "imageID": "static/dataset/coco_val_set/787.jpg", "page_name": "787_d_0.html/", "counterbalance": 0, "groundtruth": "machine", "human_groundtruth": "", "response_gender": "female"}}, "Trial_139": {"workerID": "A3FGT6EU39C6S4", "workerData": {"country": "United States", "age": "45-50", "engagement": "7", "difficulty": "6", "mode": "live", "gender": "male", "education": "bachelor", "condition": 0, "native": "yes"}, "trialData": {"rt": 9424, "hit": "94", "trial": 14, "response_speaker": "machine", "machine_groundtruth": "", "imageID": "static/dataset/coco_val_set/94.jpg", "page_name": "94_a_0.html/", "counterbalance": 0, "groundtruth": "human", "human_groundtruth": "human", "response_gender": "female"}}, "Trial_140": {"workerID": "A3FGT6EU39C6S4", "workerData": {"country": "United States", "age": "45-50", "engagement": "7", "difficulty": "6", "mode": "live", "gender": "male", "education": "bachelor", "condition": 0, "native": "yes"}, "trialData": {"rt": 9184, "hit": "788", "trial": 15, "response_speaker": "human", "machine_groundtruth": "", "imageID": "static/dataset/coco_val_set/788.jpg", "page_name": "788_a_0.html/", "counterbalance": 0, "groundtruth": "human", "human_groundtruth": "human", "response_gender": "male"}}, "Trial_141": {"workerID": "A3FGT6EU39C6S4", "workerData": {"country": "United States", "age": "45-50", "engagement": "7", "difficulty": "6", "mode": "live", "gender": "male", "education": "bachelor", "condition": 0, "native": "yes"}, "trialData": {"rt": 10595, "hit": "984", "trial": 16, "response_speaker": "machine", "machine_groundtruth": "mccq", "imageID": "static/dataset/coco_val_set/984.jpg", "page_name": "984_c_0.html/", "counterbalance": 0, "groundtruth": "machine", "human_groundtruth": "", "response_gender": "female"}}, "Trial_142": {"workerID": "A3FGT6EU39C6S4", "workerData": {"country": "United States", "age": "45-50", "engagement": "7", "difficulty": "6", "mode": "live", "gender": "male", "education": "bachelor", "condition": 0, "native": "yes"}, "trialData": {"rt": 11437, "hit": "133", "trial": 17, "response_speaker": "human", "machine_groundtruth": "", "imageID": "static/dataset/coco_val_set/133.jpg", "page_name": "133_a_0.html/", "counterbalance": 0, "groundtruth": "human", "human_groundtruth": "human", "response_gender": "female"}}, "Trial_143": {"workerID": "A3FGT6EU39C6S4", "workerData": {"country": "United States", "age": "45-50", "engagement": "7", "difficulty": "6", "mode": "live", "gender": "male", "education": "bachelor", "condition": 0, "native": "yes"}, "trialData": {"rt": 10492, "hit": "271", "trial": 18, "response_speaker": "human", "machine_groundtruth": "", "imageID": "static/dataset/coco_val_set/271.jpg", "page_name": "271_a_0.html/", "counterbalance": 0, "groundtruth": "human", "human_groundtruth": "human", "response_gender": "female"}}, "Trial_144": {"workerID": "A3FGT6EU39C6S4", "workerData": {"country": "United States", "age": "45-50", "engagement": "7", "difficulty": "6", "mode": "live", "gender": "male", "education": "bachelor", "condition": 0, "native": "yes"}, "trialData": {"rt": 10732, "hit": "1087", "trial": 19, "response_speaker": "human", "machine_groundtruth": "mccq", "imageID": "static/dataset/coco_val_set/1087.jpg", "page_name": "1087_c_0.html/", "counterbalance": 0, "groundtruth": "machine", "human_groundtruth": "", "response_gender": "male"}}, "Trial_145": {"workerID": "A3FGT6EU39C6S4", "workerData": {"country": "United States", "age": "45-50", "engagement": "7", "difficulty": "6", "mode": "live", "gender": "male", "education": "bachelor", "condition": 0, "native": "yes"}, "trialData": {"rt": 7756, "hit": "335", "trial": 20, "response_speaker": "machine", "machine_groundtruth": "azure", "imageID": "static/dataset/coco_val_set/335.jpg", "page_name": "335_b_0.html/", "counterbalance": 0, "groundtruth": "machine", "human_groundtruth": "", "response_gender": "male"}}, "Trial_146": {"workerID": "A3FGT6EU39C6S4", "workerData": {"country": "United States", "age": "45-50", "engagement": "7", "difficulty": "6", "mode": "live", "gender": "male", "education": "bachelor", "condition": 0, "native": "yes"}, "trialData": {"rt": 5830, "hit": "737", "trial": 21, "response_speaker": "human", "machine_groundtruth": "", "imageID": "static/dataset/coco_val_set/737.jpg", "page_name": "737_a_0.html/", "counterbalance": 0, "groundtruth": "human", "human_groundtruth": "human", "response_gender": "male"}}, "Trial_147": {"workerID": "A3FGT6EU39C6S4", "workerData": {"country": "United States", "age": "45-50", "engagement": "7", "difficulty": "6", "mode": "live", "gender": "male", "education": "bachelor", "condition": 0, "native": "yes"}, "trialData": {"rt": 8897, "hit": "1090", "trial": 22, "response_speaker": "human", "machine_groundtruth": "google", "imageID": "static/dataset/coco_val_set/1090.jpg", "page_name": "1090_d_0.html/", "counterbalance": 0, "groundtruth": "machine", "human_groundtruth": "", "response_gender": "female"}}, "Trial_148": {"workerID": "A3FGT6EU39C6S4", "workerData": {"country": "United States", "age": "45-50", "engagement": "7", "difficulty": "6", "mode": "live", "gender": "male", "education": "bachelor", "condition": 0, "native": "yes"}, "trialData": {"rt": 7897, "hit": "624", "trial": 23, "response_speaker": "machine", "machine_groundtruth": "google", "imageID": "static/dataset/coco_val_set/624.jpg", "page_name": "624_d_0.html/", "counterbalance": 0, "groundtruth": "machine", "human_groundtruth": "", "response_gender": "male"}}, "Trial_149": {"workerID": "A3FGT6EU39C6S4", "workerData": {"country": "United States", "age": "45-50", "engagement": "7", "difficulty": "6", "mode": "live", "gender": "male", "education": "bachelor", "condition": 0, "native": "yes"}, "trialData": {"rt": 47893, "hit": "641", "trial": 24, "response_speaker": "human", "machine_groundtruth": "google", "imageID": "static/dataset/coco_val_set/641.jpg", "page_name": "641_d_0.html/", "counterbalance": 0, "groundtruth": "machine", "human_groundtruth": "", "response_gender": "female"}}, "Trial_150": {"workerID": "A3FGT6EU39C6S4", "workerData": {"country": "United States", "age": "45-50", "engagement": "7", "difficulty": "6", "mode": "live", "gender": "male", "education": "bachelor", "condition": 0, "native": "yes"}, "trialData": {"rt": 14256, "hit": "464", "trial": 25, "response_speaker": "human", "machine_groundtruth": "", "imageID": "static/dataset/coco_val_set/464.jpg", "page_name": "464_a_0.html/", "counterbalance": 0, "groundtruth": "human", "human_groundtruth": "human", "response_gender": "male"}}, "Trial_151": {"workerID": "A1YC558J4E5KZ", "workerData": {"country": "United States", "age": "45-50", "engagement": "5", "difficulty": "3", "mode": "live", "gender": "male", "education": "bachelor", "condition": 0, "native": "yes"}, "trialData": {"rt": 9137, "hit": "952", "trial": 1, "response_speaker": "machine", "machine_groundtruth": "google", "imageID": "static/dataset/coco_val_set/952.jpg", "page_name": "952_d_0.html/", "counterbalance": 0, "groundtruth": "machine", "human_groundtruth": "", "response_gender": "female"}}, "Trial_152": {"workerID": "A1YC558J4E5KZ", "workerData": {"country": "United States", "age": "45-50", "engagement": "5", "difficulty": "3", "mode": "live", "gender": "male", "education": "bachelor", "condition": 0, "native": "yes"}, "trialData": {"rt": 10943, "hit": "687", "trial": 2, "response_speaker": "machine", "machine_groundtruth": "", "imageID": "static/dataset/coco_val_set/687.jpg", "page_name": "687_a_0.html/", "counterbalance": 0, "groundtruth": "human", "human_groundtruth": "human", "response_gender": "male"}}, "Trial_153": {"workerID": "A1YC558J4E5KZ", "workerData": {"country": "United States", "age": "45-50", "engagement": "5", "difficulty": "3", "mode": "live", "gender": "male", "education": "bachelor", "condition": 0, "native": "yes"}, "trialData": {"rt": 7842, "hit": "367", "trial": 3, "response_speaker": "machine", "machine_groundtruth": "azure", "imageID": "static/dataset/coco_val_set/367.jpg", "page_name": "367_b_0.html/", "counterbalance": 0, "groundtruth": "machine", "human_groundtruth": "", "response_gender": "female"}}, "Trial_154": {"workerID": "A1YC558J4E5KZ", "workerData": {"country": "United States", "age": "45-50", "engagement": "5", "difficulty": "3", "mode": "live", "gender": "male", "education": "bachelor", "condition": 0, "native": "yes"}, "trialData": {"rt": 6613, "hit": "1124", "trial": 4, "response_speaker": "machine", "machine_groundtruth": "mccq", "imageID": "static/dataset/coco_val_set/1124.jpg", "page_name": "1124_c_0.html/", "counterbalance": 0, "groundtruth": "machine", "human_groundtruth": "", "response_gender": "female"}}, "Trial_155": {"workerID": "A1YC558J4E5KZ", "workerData": {"country": "United States", "age": "45-50", "engagement": "5", "difficulty": "3", "mode": "live", "gender": "male", "education": "bachelor", "condition": 0, "native": "yes"}, "trialData": {"rt": 9480, "hit": "418", "trial": 5, "response_speaker": "machine", "machine_groundtruth": "mccq", "imageID": "static/dataset/coco_val_set/418.jpg", "page_name": "418_c_0.html/", "counterbalance": 0, "groundtruth": "machine", "human_groundtruth": "", "response_gender": "female"}}, "Trial_156": {"workerID": "A1YC558J4E5KZ", "workerData": {"country": "United States", "age": "45-50", "engagement": "5", "difficulty": "3", "mode": "live", "gender": "male", "education": "bachelor", "condition": 0, "native": "yes"}, "trialData": {"rt": 7119, "hit": "583", "trial": 6, "response_speaker": "human", "machine_groundtruth": "", "imageID": "static/dataset/coco_val_set/583.jpg", "page_name": "583_a_0.html/", "counterbalance": 0, "groundtruth": "human", "human_groundtruth": "human", "response_gender": "male"}}, "Trial_157": {"workerID": "A1YC558J4E5KZ", "workerData": {"country": "United States", "age": "45-50", "engagement": "5", "difficulty": "3", "mode": "live", "gender": "male", "education": "bachelor", "condition": 0, "native": "yes"}, "trialData": {"rt": 7968, "hit": "1132", "trial": 7, "response_speaker": "machine", "machine_groundtruth": "google", "imageID": "static/dataset/coco_val_set/1132.jpg", "page_name": "1132_d_0.html/", "counterbalance": 0, "groundtruth": "machine", "human_groundtruth": "", "response_gender": "female"}}, "Trial_158": {"workerID": "A1YC558J4E5KZ", "workerData": {"country": "United States", "age": "45-50", "engagement": "5", "difficulty": "3", "mode": "live", "gender": "male", "education": "bachelor", "condition": 0, "native": "yes"}, "trialData": {"rt": 6709, "hit": "1142", "trial": 8, "response_speaker": "machine", "machine_groundtruth": "google", "imageID": "static/dataset/coco_val_set/1142.jpg", "page_name": "1142_d_0.html/", "counterbalance": 0, "groundtruth": "machine", "human_groundtruth": "", "response_gender": "female"}}, "Trial_159": {"workerID": "A1YC558J4E5KZ", "workerData": {"country": "United States", "age": "45-50", "engagement": "5", "difficulty": "3", "mode": "live", "gender": "male", "education": "bachelor", "condition": 0, "native": "yes"}, "trialData": {"rt": 8277, "hit": "1096", "trial": 9, "response_speaker": "human", "machine_groundtruth": "", "imageID": "static/dataset/coco_val_set/1096.jpg", "page_name": "1096_a_0.html/", "counterbalance": 0, "groundtruth": "human", "human_groundtruth": "human", "response_gender": "male"}}, "Trial_160": {"workerID": "A1YC558J4E5KZ", "workerData": {"country": "United States", "age": "45-50", "engagement": "5", "difficulty": "3", "mode": "live", "gender": "male", "education": "bachelor", "condition": 0, "native": "yes"}, "trialData": {"rt": 9602, "hit": "314", "trial": 10, "response_speaker": "machine", "machine_groundtruth": "google", "imageID": "static/dataset/coco_val_set/314.jpg", "page_name": "314_d_0.html/", "counterbalance": 0, "groundtruth": "machine", "human_groundtruth": "", "response_gender": "female"}}, "Trial_161": {"workerID": "A1YC558J4E5KZ", "workerData": {"country": "United States", "age": "45-50", "engagement": "5", "difficulty": "3", "mode": "live", "gender": "male", "education": "bachelor", "condition": 0, "native": "yes"}, "trialData": {"rt": 3987, "hit": "776", "trial": 11, "response_speaker": "machine", "machine_groundtruth": "", "imageID": "static/dataset/coco_val_set/776.jpg", "page_name": "776_a_0.html/", "counterbalance": 0, "groundtruth": "human", "human_groundtruth": "human", "response_gender": "female"}}, "Trial_162": {"workerID": "A1YC558J4E5KZ", "workerData": {"country": "United States", "age": "45-50", "engagement": "5", "difficulty": "3", "mode": "live", "gender": "male", "education": "bachelor", "condition": 0, "native": "yes"}, "trialData": {"rt": 7948, "hit": "437", "trial": 12, "response_speaker": "machine", "machine_groundtruth": "azure", "imageID": "static/dataset/coco_val_set/437.jpg", "page_name": "437_b_0.html/", "counterbalance": 0, "groundtruth": "machine", "human_groundtruth": "", "response_gender": "female"}}, "Trial_163": {"workerID": "A1YC558J4E5KZ", "workerData": {"country": "United States", "age": "45-50", "engagement": "5", "difficulty": "3", "mode": "live", "gender": "male", "education": "bachelor", "condition": 0, "native": "yes"}, "trialData": {"rt": 5148, "hit": "117", "trial": 13, "response_speaker": "machine", "machine_groundtruth": "google", "imageID": "static/dataset/coco_val_set/117.jpg", "page_name": "117_d_0.html/", "counterbalance": 0, "groundtruth": "machine", "human_groundtruth": "", "response_gender": "female"}}, "Trial_164": {"workerID": "A1YC558J4E5KZ", "workerData": {"country": "United States", "age": "45-50", "engagement": "5", "difficulty": "3", "mode": "live", "gender": "male", "education": "bachelor", "condition": 0, "native": "yes"}, "trialData": {"rt": 6135, "hit": "792", "trial": 14, "response_speaker": "human", "machine_groundtruth": "", "imageID": "static/dataset/coco_val_set/792.jpg", "page_name": "792_a_0.html/", "counterbalance": 0, "groundtruth": "human", "human_groundtruth": "human", "response_gender": "male"}}, "Trial_165": {"workerID": "A1YC558J4E5KZ", "workerData": {"country": "United States", "age": "45-50", "engagement": "5", "difficulty": "3", "mode": "live", "gender": "male", "education": "bachelor", "condition": 0, "native": "yes"}, "trialData": {"rt": 14790, "hit": "546", "trial": 15, "response_speaker": "machine", "machine_groundtruth": "", "imageID": "static/dataset/coco_val_set/546.jpg", "page_name": "546_a_0.html/", "counterbalance": 0, "groundtruth": "human", "human_groundtruth": "human", "response_gender": "female"}}, "Trial_166": {"workerID": "A1YC558J4E5KZ", "workerData": {"country": "United States", "age": "45-50", "engagement": "5", "difficulty": "3", "mode": "live", "gender": "male", "education": "bachelor", "condition": 0, "native": "yes"}, "trialData": {"rt": 4865, "hit": "222", "trial": 16, "response_speaker": "human", "machine_groundtruth": "", "imageID": "static/dataset/coco_val_set/222.jpg", "page_name": "222_a_0.html/", "counterbalance": 0, "groundtruth": "human", "human_groundtruth": "human", "response_gender": "male"}}, "Trial_167": {"workerID": "A1YC558J4E5KZ", "workerData": {"country": "United States", "age": "45-50", "engagement": "5", "difficulty": "3", "mode": "live", "gender": "male", "education": "bachelor", "condition": 0, "native": "yes"}, "trialData": {"rt": 11322, "hit": "523", "trial": 17, "response_speaker": "human", "machine_groundtruth": "azure", "imageID": "static/dataset/coco_val_set/523.jpg", "page_name": "523_b_0.html/", "counterbalance": 0, "groundtruth": "machine", "human_groundtruth": "", "response_gender": "male"}}, "Trial_168": {"workerID": "A1YC558J4E5KZ", "workerData": {"country": "United States", "age": "45-50", "engagement": "5", "difficulty": "3", "mode": "live", "gender": "male", "education": "bachelor", "condition": 0, "native": "yes"}, "trialData": {"rt": 5508, "hit": "357", "trial": 18, "response_speaker": "machine", "machine_groundtruth": "", "imageID": "static/dataset/coco_val_set/357.jpg", "page_name": "357_a_0.html/", "counterbalance": 0, "groundtruth": "human", "human_groundtruth": "human", "response_gender": "female"}}, "Trial_169": {"workerID": "A1YC558J4E5KZ", "workerData": {"country": "United States", "age": "45-50", "engagement": "5", "difficulty": "3", "mode": "live", "gender": "male", "education": "bachelor", "condition": 0, "native": "yes"}, "trialData": {"rt": 4877, "hit": "827", "trial": 19, "response_speaker": "machine", "machine_groundtruth": "", "imageID": "static/dataset/coco_val_set/827.jpg", "page_name": "827_a_0.html/", "counterbalance": 0, "groundtruth": "human", "human_groundtruth": "human", "response_gender": "female"}}, "Trial_170": {"workerID": "A1YC558J4E5KZ", "workerData": {"country": "United States", "age": "45-50", "engagement": "5", "difficulty": "3", "mode": "live", "gender": "male", "education": "bachelor", "condition": 0, "native": "yes"}, "trialData": {"rt": 9683, "hit": "435", "trial": 20, "response_speaker": "human", "machine_groundtruth": "", "imageID": "static/dataset/coco_val_set/435.jpg", "page_name": "435_a_0.html/", "counterbalance": 0, "groundtruth": "human", "human_groundtruth": "human", "response_gender": "male"}}, "Trial_171": {"workerID": "A1YC558J4E5KZ", "workerData": {"country": "United States", "age": "45-50", "engagement": "5", "difficulty": "3", "mode": "live", "gender": "male", "education": "bachelor", "condition": 0, "native": "yes"}, "trialData": {"rt": 6366, "hit": "889", "trial": 21, "response_speaker": "machine", "machine_groundtruth": "", "imageID": "static/dataset/coco_val_set/889.jpg", "page_name": "889_a_0.html/", "counterbalance": 0, "groundtruth": "human", "human_groundtruth": "human", "response_gender": "female"}}, "Trial_172": {"workerID": "A1YC558J4E5KZ", "workerData": {"country": "United States", "age": "45-50", "engagement": "5", "difficulty": "3", "mode": "live", "gender": "male", "education": "bachelor", "condition": 0, "native": "yes"}, "trialData": {"rt": 5559, "hit": "265", "trial": 22, "response_speaker": "machine", "machine_groundtruth": "mccq", "imageID": "static/dataset/coco_val_set/265.jpg", "page_name": "265_c_0.html/", "counterbalance": 0, "groundtruth": "machine", "human_groundtruth": "", "response_gender": "female"}}, "Trial_174": {"workerID": "A1YC558J4E5KZ", "workerData": {"country": "United States", "age": "45-50", "engagement": "5", "difficulty": "3", "mode": "live", "gender": "male", "education": "bachelor", "condition": 0, "native": "yes"}, "trialData": {"rt": 6001, "hit": "735", "trial": 24, "response_speaker": "human", "machine_groundtruth": "", "imageID": "static/dataset/coco_val_set/735.jpg", "page_name": "735_a_0.html/", "counterbalance": 0, "groundtruth": "human", "human_groundtruth": "human", "response_gender": "male"}}, "Trial_175": {"workerID": "A1YC558J4E5KZ", "workerData": {"country": "United States", "age": "45-50", "engagement": "5", "difficulty": "3", "mode": "live", "gender": "male", "education": "bachelor", "condition": 0, "native": "yes"}, "trialData": {"rt": 4418, "hit": "352", "trial": 25, "response_speaker": "machine", "machine_groundtruth": "mccq", "imageID": "static/dataset/coco_val_set/352.jpg", "page_name": "352_c_0.html/", "counterbalance": 0, "groundtruth": "machine", "human_groundtruth": "", "response_gender": "female"}}, "Trial_176": {"workerID": "A27W025UEXS1G0", "workerData": {"country": "United States", "age": "31-35", "engagement": "7", "difficulty": "1", "mode": "live", "gender": "male", "education": "high school", "condition": 0, "native": "yes"}, "trialData": {"rt": 11650, "hit": "1006", "trial": 1, "response_speaker": "machine", "machine_groundtruth": "", "imageID": "static/dataset/coco_val_set/1006.jpg", "page_name": "1006_a_0.html/", "counterbalance": 0, "groundtruth": "human", "human_groundtruth": "human", "response_gender": "female"}}, "Trial_177": {"workerID": "A27W025UEXS1G0", "workerData": {"country": "United States", "age": "31-35", "engagement": "7", "difficulty": "1", "mode": "live", "gender": "male", "education": "high school", "condition": 0, "native": "yes"}, "trialData": {"rt": 8967, "hit": "817", "trial": 2, "response_speaker": "machine", "machine_groundtruth": "", "imageID": "static/dataset/coco_val_set/817.jpg", "page_name": "817_a_0.html/", "counterbalance": 0, "groundtruth": "human", "human_groundtruth": "human", "response_gender": "female"}}, "Trial_178": {"workerID": "A27W025UEXS1G0", "workerData": {"country": "United States", "age": "31-35", "engagement": "7", "difficulty": "1", "mode": "live", "gender": "male", "education": "high school", "condition": 0, "native": "yes"}, "trialData": {"rt": 6317, "hit": "339", "trial": 3, "response_speaker": "machine", "machine_groundtruth": "", "imageID": "static/dataset/coco_val_set/339.jpg", "page_name": "339_a_0.html/", "counterbalance": 0, "groundtruth": "human", "human_groundtruth": "human", "response_gender": "male"}}, "Trial_179": {"workerID": "A27W025UEXS1G0", "workerData": {"country": "United States", "age": "31-35", "engagement": "7", "difficulty": "1", "mode": "live", "gender": "male", "education": "high school", "condition": 0, "native": "yes"}, "trialData": {"rt": 5865, "hit": "122", "trial": 4, "response_speaker": "machine", "machine_groundtruth": "", "imageID": "static/dataset/coco_val_set/122.jpg", "page_name": "122_a_0.html/", "counterbalance": 0, "groundtruth": "human", "human_groundtruth": "human", "response_gender": "male"}}, "Trial_180": {"workerID": "A27W025UEXS1G0", "workerData": {"country": "United States", "age": "31-35", "engagement": "7", "difficulty": "1", "mode": "live", "gender": "male", "education": "high school", "condition": 0, "native": "yes"}, "trialData": {"rt": 9676, "hit": "587", "trial": 5, "response_speaker": "machine", "machine_groundtruth": "", "imageID": "static/dataset/coco_val_set/587.jpg", "page_name": "587_a_0.html/", "counterbalance": 0, "groundtruth": "human", "human_groundtruth": "human", "response_gender": "male"}}, "Trial_181": {"workerID": "A27W025UEXS1G0", "workerData": {"country": "United States", "age": "31-35", "engagement": "7", "difficulty": "1", "mode": "live", "gender": "male", "education": "high school", "condition": 0, "native": "yes"}, "trialData": {"rt": 14130, "hit": "495", "trial": 6, "response_speaker": "machine", "machine_groundtruth": "azure", "imageID": "static/dataset/coco_val_set/495.jpg", "page_name": "495_b_0.html/", "counterbalance": 0, "groundtruth": "machine", "human_groundtruth": "", "response_gender": "male"}}, "Trial_182": {"workerID": "A27W025UEXS1G0", "workerData": {"country": "United States", "age": "31-35", "engagement": "7", "difficulty": "1", "mode": "live", "gender": "male", "education": "high school", "condition": 0, "native": "yes"}, "trialData": {"rt": 7709, "hit": "271", "trial": 7, "response_speaker": "human", "machine_groundtruth": "", "imageID": "static/dataset/coco_val_set/271.jpg", "page_name": "271_a_0.html/", "counterbalance": 0, "groundtruth": "human", "human_groundtruth": "human", "response_gender": "female"}}, "Trial_183": {"workerID": "A27W025UEXS1G0", "workerData": {"country": "United States", "age": "31-35", "engagement": "7", "difficulty": "1", "mode": "live", "gender": "male", "education": "high school", "condition": 0, "native": "yes"}, "trialData": {"rt": 8666, "hit": "596", "trial": 8, "response_speaker": "machine", "machine_groundtruth": "azure", "imageID": "static/dataset/coco_val_set/596.jpg", "page_name": "596_b_0.html/", "counterbalance": 0, "groundtruth": "machine", "human_groundtruth": "", "response_gender": "male"}}, "Trial_184": {"workerID": "A27W025UEXS1G0", "workerData": {"country": "United States", "age": "31-35", "engagement": "7", "difficulty": "1", "mode": "live", "gender": "male", "education": "high school", "condition": 0, "native": "yes"}, "trialData": {"rt": 6538, "hit": "305", "trial": 9, "response_speaker": "machine", "machine_groundtruth": "", "imageID": "static/dataset/coco_val_set/305.jpg", "page_name": "305_a_0.html/", "counterbalance": 0, "groundtruth": "human", "human_groundtruth": "human", "response_gender": "male"}}, "Trial_185": {"workerID": "A27W025UEXS1G0", "workerData": {"country": "United States", "age": "31-35", "engagement": "7", "difficulty": "1", "mode": "live", "gender": "male", "education": "high school", "condition": 0, "native": "yes"}, "trialData": {"rt": 8358, "hit": "334", "trial": 10, "response_speaker": "human", "machine_groundtruth": "", "imageID": "static/dataset/coco_val_set/334.jpg", "page_name": "334_a_0.html/", "counterbalance": 0, "groundtruth": "human", "human_groundtruth": "human", "response_gender": "female"}}, "Trial_187": {"workerID": "A27W025UEXS1G0", "workerData": {"country": "United States", "age": "31-35", "engagement": "7", "difficulty": "1", "mode": "live", "gender": "male", "education": "high school", "condition": 0, "native": "yes"}, "trialData": {"rt": 7865, "hit": "674", "trial": 12, "response_speaker": "human", "machine_groundtruth": "", "imageID": "static/dataset/coco_val_set/674.jpg", "page_name": "674_a_0.html/", "counterbalance": 0, "groundtruth": "human", "human_groundtruth": "human", "response_gender": "female"}}, "Trial_188": {"workerID": "A27W025UEXS1G0", "workerData": {"country": "United States", "age": "31-35", "engagement": "7", "difficulty": "1", "mode": "live", "gender": "male", "education": "high school", "condition": 0, "native": "yes"}, "trialData": {"rt": 5873, "hit": "90", "trial": 13, "response_speaker": "human", "machine_groundtruth": "", "imageID": "static/dataset/coco_val_set/90.jpg", "page_name": "90_a_0.html/", "counterbalance": 0, "groundtruth": "human", "human_groundtruth": "human", "response_gender": "female"}}, "Trial_189": {"workerID": "A27W025UEXS1G0", "workerData": {"country": "United States", "age": "31-35", "engagement": "7", "difficulty": "1", "mode": "live", "gender": "male", "education": "high school", "condition": 0, "native": "yes"}, "trialData": {"rt": 7617, "hit": "221", "trial": 14, "response_speaker": "human", "machine_groundtruth": "", "imageID": "static/dataset/coco_val_set/221.jpg", "page_name": "221_a_0.html/", "counterbalance": 0, "groundtruth": "human", "human_groundtruth": "human", "response_gender": "male"}}, "Trial_190": {"workerID": "A27W025UEXS1G0", "workerData": {"country": "United States", "age": "31-35", "engagement": "7", "difficulty": "1", "mode": "live", "gender": "male", "education": "high school", "condition": 0, "native": "yes"}, "trialData": {"rt": 9544, "hit": "610", "trial": 15, "response_speaker": "machine", "machine_groundtruth": "mccq", "imageID": "static/dataset/coco_val_set/610.jpg", "page_name": "610_c_0.html/", "counterbalance": 0, "groundtruth": "machine", "human_groundtruth": "", "response_gender": "male"}}, "Trial_191": {"workerID": "A27W025UEXS1G0", "workerData": {"country": "United States", "age": "31-35", "engagement": "7", "difficulty": "1", "mode": "live", "gender": "male", "education": "high school", "condition": 0, "native": "yes"}, "trialData": {"rt": 9937, "hit": "1197", "trial": 16, "response_speaker": "machine", "machine_groundtruth": "", "imageID": "static/dataset/coco_val_set/1197.jpg", "page_name": "1197_a_0.html/", "counterbalance": 0, "groundtruth": "human", "human_groundtruth": "human", "response_gender": "female"}}, "Trial_192": {"workerID": "A27W025UEXS1G0", "workerData": {"country": "United States", "age": "31-35", "engagement": "7", "difficulty": "1", "mode": "live", "gender": "male", "education": "high school", "condition": 0, "native": "yes"}, "trialData": {"rt": 8162, "hit": "793", "trial": 17, "response_speaker": "machine", "machine_groundtruth": "azure", "imageID": "static/dataset/coco_val_set/793.jpg", "page_name": "793_b_0.html/", "counterbalance": 0, "groundtruth": "machine", "human_groundtruth": "", "response_gender": "male"}}, "Trial_193": {"workerID": "A27W025UEXS1G0", "workerData": {"country": "United States", "age": "31-35", "engagement": "7", "difficulty": "1", "mode": "live", "gender": "male", "education": "high school", "condition": 0, "native": "yes"}, "trialData": {"rt": 5530, "hit": "1178", "trial": 18, "response_speaker": "human", "machine_groundtruth": "", "imageID": "static/dataset/coco_val_set/1178.jpg", "page_name": "1178_a_0.html/", "counterbalance": 0, "groundtruth": "human", "human_groundtruth": "human", "response_gender": "female"}}, "Trial_194": {"workerID": "A27W025UEXS1G0", "workerData": {"country": "United States", "age": "31-35", "engagement": "7", "difficulty": "1", "mode": "live", "gender": "male", "education": "high school", "condition": 0, "native": "yes"}, "trialData": {"rt": 9691, "hit": "895", "trial": 19, "response_speaker": "machine", "machine_groundtruth": "mccq", "imageID": "static/dataset/coco_val_set/895.jpg", "page_name": "895_c_0.html/", "counterbalance": 0, "groundtruth": "machine", "human_groundtruth": "", "response_gender": "male"}}, "Trial_195": {"workerID": "A27W025UEXS1G0", "workerData": {"country": "United States", "age": "31-35", "engagement": "7", "difficulty": "1", "mode": "live", "gender": "male", "education": "high school", "condition": 0, "native": "yes"}, "trialData": {"rt": 6509, "hit": "323", "trial": 20, "response_speaker": "machine", "machine_groundtruth": "azure", "imageID": "static/dataset/coco_val_set/323.jpg", "page_name": "323_b_0.html/", "counterbalance": 0, "groundtruth": "machine", "human_groundtruth": "", "response_gender": "female"}}, "Trial_196": {"workerID": "A27W025UEXS1G0", "workerData": {"country": "United States", "age": "31-35", "engagement": "7", "difficulty": "1", "mode": "live", "gender": "male", "education": "high school", "condition": 0, "native": "yes"}, "trialData": {"rt": 7507, "hit": "355", "trial": 21, "response_speaker": "machine", "machine_groundtruth": "", "imageID": "static/dataset/coco_val_set/355.jpg", "page_name": "355_a_0.html/", "counterbalance": 0, "groundtruth": "human", "human_groundtruth": "human", "response_gender": "male"}}, "Trial_197": {"workerID": "A27W025UEXS1G0", "workerData": {"country": "United States", "age": "31-35", "engagement": "7", "difficulty": "1", "mode": "live", "gender": "male", "education": "high school", "condition": 0, "native": "yes"}, "trialData": {"rt": 6430, "hit": "744", "trial": 22, "response_speaker": "human", "machine_groundtruth": "azure", "imageID": "static/dataset/coco_val_set/744.jpg", "page_name": "744_b_0.html/", "counterbalance": 0, "groundtruth": "machine", "human_groundtruth": "", "response_gender": "male"}}, "Trial_198": {"workerID": "A27W025UEXS1G0", "workerData": {"country": "United States", "age": "31-35", "engagement": "7", "difficulty": "1", "mode": "live", "gender": "male", "education": "high school", "condition": 0, "native": "yes"}, "trialData": {"rt": 7931, "hit": "21", "trial": 23, "response_speaker": "human", "machine_groundtruth": "", "imageID": "static/dataset/coco_val_set/21.jpg", "page_name": "21_a_0.html/", "counterbalance": 0, "groundtruth": "human", "human_groundtruth": "human", "response_gender": "female"}}, "Trial_199": {"workerID": "A27W025UEXS1G0", "workerData": {"country": "United States", "age": "31-35", "engagement": "7", "difficulty": "1", "mode": "live", "gender": "male", "education": "high school", "condition": 0, "native": "yes"}, "trialData": {"rt": 7628, "hit": "671", "trial": 24, "response_speaker": "machine", "machine_groundtruth": "google", "imageID": "static/dataset/coco_val_set/671.jpg", "page_name": "671_d_0.html/", "counterbalance": 0, "groundtruth": "machine", "human_groundtruth": "", "response_gender": "female"}}, "Trial_200": {"workerID": "A27W025UEXS1G0", "workerData": {"country": "United States", "age": "31-35", "engagement": "7", "difficulty": "1", "mode": "live", "gender": "male", "education": "high school", "condition": 0, "native": "yes"}, "trialData": {"rt": 7220, "hit": "925", "trial": 25, "response_speaker": "machine", "machine_groundtruth": "azure", "imageID": "static/dataset/coco_val_set/925.jpg", "page_name": "925_b_0.html/", "counterbalance": 0, "groundtruth": "machine", "human_groundtruth": "", "response_gender": "male"}}, "Trial_201": {"workerID": "A3RR85PK3AV9TU", "workerData": {"country": "United States", "age": "31-35", "engagement": "7", "difficulty": "2", "mode": "live", "gender": "male", "education": "high school", "condition": 0, "native": "yes"}, "trialData": {"rt": 12121, "hit": "54", "trial": 1, "response_speaker": "machine", "machine_groundtruth": "mccq", "imageID": "static/dataset/coco_val_set/54.jpg", "page_name": "54_c_0.html/", "counterbalance": 0, "groundtruth": "machine", "human_groundtruth": "", "response_gender": "female"}}, "Trial_202": {"workerID": "A3RR85PK3AV9TU", "workerData": {"country": "United States", "age": "31-35", "engagement": "7", "difficulty": "2", "mode": "live", "gender": "male", "education": 