{"Trial_1": {"workerID": "AA2C6B86V30SB", "workerData": {"country": "United States", "age": "31-35", "engagement": "3", "difficulty": "3", "mode": "live", "gender": "male", "education": "bachelor", "condition": 0, "native": "yes"}, "trialData": {"rt": 15658, "hit": "participant_61", "trial": 1, "response_speaker": "human", "machine_groundtruth": "word2vec", "imageID": 61, "caption": "spouse", "counterbalance": 0, "groundtruth": "human", "phase": "TEST", "human_groundtruth": "", "real_gender": "male", "guess_gender": "male"}}, "Trial_2": {"workerID": "AA2C6B86V30SB", "workerData": {"country": "United States", "age": "31-35", "engagement": "3", "difficulty": "3", "mode": "live", "gender": "male", "education": "bachelor", "condition": 0, "native": "yes"}, "trialData": {"rt": 20661, "hit": "participant_54", "trial": 2, "response_speaker": "AI", "machine_groundtruth": "word2vec", "imageID": 54, "caption": "absent", "counterbalance": 0, "groundtruth": "AI", "phase": "TEST", "human_groundtruth": "", "real_gender": "AI", "guess_gender": "male"}}, "Trial_3": {"workerID": "AA2C6B86V30SB", "workerData": {"country": "United States", "age": "31-35", "engagement": "3", "difficulty": "3", "mode": "live", "gender": "male", "education": "bachelor", "condition": 0, "native": "yes"}, "trialData": {"rt": 6471, "hit": "participant_34", "trial": 3, "response_speaker": "AI", "machine_groundtruth": "gpt3 (prompt curie)", "imageID": 34, "caption": "venerable", "counterbalance": 0, "groundtruth": "AI", "phase": "TEST", "human_groundtruth": "", "real_gender": "AI", "guess_gender": "male"}}, "Trial_4": {"workerID": "AA2C6B86V30SB", "workerData": {"country": "United States", "age": "31-35", "engagement": "3", "difficulty": "3", "mode": "live", "gender": "male", "education": "bachelor", "condition": 0, "native": "yes"}, "trialData": {"rt": 5664, "hit": "participant_41", "trial": 4, "response_speaker": "AI", "machine_groundtruth": "word2vec", "imageID": 41, "caption": "schematic", "counterbalance": 0, "groundtruth": "AI", "phase": "TEST", "human_groundtruth": "", "real_gender": "AI", "guess_gender": "male"}}, "Trial_5": {"workerID": "AA2C6B86V30SB", "workerData": {"country": "United States", "age": "31-35", "engagement": "3", "difficulty": "3", "mode": "live", "gender": "male", "education": "bachelor", "condition": 0, "native": "yes"}, "trialData": {"rt": 6054, "hit": "participant_73", "trial": 5, "response_speaker": "human", "machine_groundtruth": "gpt3 (prompt curie)", "imageID": 73, "caption": "ammunition", "counterbalance": 0, "groundtruth": "AI", "phase": "TEST", "human_groundtruth": "", "real_gender": "AI", "guess_gender": "female"}}, "Trial_6": {"workerID": "AA2C6B86V30SB", "workerData": {"country": "United States", "age": "31-35", "engagement": "3", "difficulty": "3", "mode": "live", "gender": "male", "education": "bachelor", "condition": 0, "native": "yes"}, "trialData": {"rt": 6743, "hit": "participant_33", "trial": 6, "response_speaker": "human", "machine_groundtruth": "gpt3 (prompt curie)", "imageID": 33, "caption": "puppy", "counterbalance": 0, "groundtruth": "human", "phase": "TEST", "human_groundtruth": "", "real_gender": "female", "guess_gender": "female"}}, "Trial_7": {"workerID": "AA2C6B86V30SB", "workerData": {"country": "United States", "age": "31-35", "engagement": "3", "difficulty": "3", "mode": "live", "gender": "male", "education": "bachelor", "condition": 0, "native": "yes"}, "trialData": {"rt": 6361, "hit": "participant_138", "trial": 7, "response_speaker": "AI", "machine_groundtruth": "gpt3 (prompt curie)", "imageID": 138, "caption": "enclave", "counterbalance": 0, "groundtruth": "human", "phase": "TEST", "human_groundtruth": "", "real_gender": "female", "guess_gender": "female"}}, "Trial_8": {"workerID": "AA2C6B86V30SB", "workerData": {"country": "United States", "age": "31-35", "engagement": "3", "difficulty": "3", "mode": "live", "gender": "male", "education": "bachelor", "condition": 0, "native": "yes"}, "trialData": {"rt": 6152, "hit": "participant_13", "trial": 8, "response_speaker": "human", "machine_groundtruth": "gpt3 (prompt curie)", "imageID": 13, "caption": "southeastern", "counterbalance": 0, "groundtruth": "AI", "phase": "TEST", "human_groundtruth": "", "real_gender": "AI", "guess_gender": "female"}}, "Trial_9": {"workerID": "AA2C6B86V30SB", "workerData": {"country": "United States", "age": "31-35", "engagement": "3", "difficulty": "3", "mode": "live", "gender": "male", "education": "bachelor", "condition": 0, "native": "yes"}, "trialData": {"rt": 7120, "hit": "participant_125", "trial": 9, "response_speaker": "human", "machine_groundtruth": "gpt3 (prompt curie)", "imageID": 125, "caption": "establish", "counterbalance": 0, "groundtruth": "human", "phase": "TEST", "human_groundtruth": "", "real_gender": "female", "guess_gender": "female"}}, "Trial_10": {"workerID": "AA2C6B86V30SB", "workerData": {"country": "United States", "age": "31-35", "engagement": "3", "difficulty": "3", "mode": "live", "gender": "male", "education": "bachelor", "condition": 0, "native": "yes"}, "trialData": {"rt": 8217, "hit": "participant_144", "trial": 10, "response_speaker": "AI", "machine_groundtruth": "gpt3 (prompt curie)", "imageID": 144, "caption": "hatred", "counterbalance": 0, "groundtruth": "human", "phase": "TEST", "human_groundtruth": "", "real_gender": "male", "guess_gender": "female"}}, "Trial_11": {"workerID": "AA2C6B86V30SB", "workerData": {"country": "United States", "age": "31-35", "engagement": "3", "difficulty": "3", "mode": "live", "gender": "male", "education": "bachelor", "condition": 0, "native": "yes"}, "trialData": {"rt": 5655, "hit": "participant_45", "trial": 11, "response_speaker": "AI", "machine_groundtruth": " gpt3 (embedding)", "imageID": 45, "caption": "white", "counterbalance": 0, "groundtruth": "AI", "phase": "TEST", "human_groundtruth": "", "real_gender": "AI", "guess_gender": "female"}}, "Trial_12": {"workerID": "AA2C6B86V30SB", "workerData": {"country": "United States", "age": "31-35", "engagement": "3", "difficulty": "3", "mode": "live", "gender": "male", "education": "bachelor", "condition": 0, "native": "yes"}, "trialData": {"rt": 5656, "hit": "participant_88", "trial": 12, "response_speaker": "AI", "machine_groundtruth": " gpt3 (embedding)", "imageID": 88, "caption": "curtain", "counterbalance": 0, "groundtruth": "AI", "phase": "TEST", "human_groundtruth": "", "real_gender": "AI", "guess_gender": "female"}}, "Trial_13": {"workerID": "AA2C6B86V30SB", "workerData": {"country": "United States", "age": "31-35", "engagement": "3", "difficulty": "3", "mode": "live", "gender": "male", "education": "bachelor", "condition": 0, "native": "yes"}, "trialData": {"rt": 6726, "hit": "participant_81", "trial": 13, "response_speaker": "AI", "machine_groundtruth": "gpt2", "imageID": 81, "caption": "awhile", "counterbalance": 0, "groundtruth": "AI", "phase": "TEST", "human_groundtruth": "", "real_gender": "AI", "guess_gender": "female"}}, "Trial_14": {"workerID": "AA2C6B86V30SB", "workerData": {"country": "United States", "age": "31-35", "engagement": "3", "difficulty": "3", "mode": "live", "gender": "male", "education": "bachelor", "condition": 0, "native": "yes"}, "trialData": {"rt": 4438, "hit": "participant_0", "trial": 14, "response_speaker": "human", "machine_groundtruth": "gpt3 (prompt curie)", "imageID": 0, "caption": "memorable", "counterbalance": 0, "groundtruth": "AI", "phase": "TEST", "human_groundtruth": "", "real_gender": "AI", "guess_gender": "male"}}, "Trial_15": {"workerID": "AA2C6B86V30SB", "workerData": {"country": "United States", "age": "31-35", "engagement": "3", "difficulty": "3", "mode": "live", "gender": "male", "education": "bachelor", "condition": 0, "native": "yes"}, "trialData": {"rt": 4964, "hit": "participant_105", "trial": 15, "response_speaker": "AI", "machine_groundtruth": "gpt3 (prompt curie)", "imageID": 105, "caption": "appear", "counterbalance": 0, "groundtruth": "AI", "phase": "TEST", "human_groundtruth": "", "real_gender": "AI", "guess_gender": "male"}}, "Trial_16": {"workerID": "AA2C6B86V30SB", "workerData": {"country": "United States", "age": "31-35", "engagement": "3", "difficulty": "3", "mode": "live", "gender": "male", "education": "bachelor", "condition": 0, "native": "yes"}, "trialData": {"rt": 7098, "hit": "participant_24", "trial": 16, "response_speaker": "human", "machine_groundtruth": "gpt3 (prompt curie)", "imageID": 24, "caption": "ridiculous", "counterbalance": 0, "groundtruth": "human", "phase": "TEST", "human_groundtruth": "", "real_gender": "female", "guess_gender": "female"}}, "Trial_17": {"workerID": "AA2C6B86V30SB", "workerData": {"country": "United States", "age": "31-35", "engagement": "3", "difficulty": "3", "mode": "live", "gender": "male", "education": "bachelor", "condition": 0, "native": "yes"}, "trialData": {"rt": 9580, "hit": "participant_10", "trial": 17, "response_speaker": "AI", "machine_groundtruth": "gpt3 (prompt curie)", "imageID": 10, "caption": "flat", "counterbalance": 0, "groundtruth": "human", "phase": "TEST", "human_groundtruth": "", "real_gender": "female", "guess_gender": "female"}}, "Trial_18": {"workerID": "AA2C6B86V30SB", "workerData": {"country": "United States", "age": "31-35", "engagement": "3", "difficulty": "3", "mode": "live", "gender": "male", "education": "bachelor", "condition": 0, "native": "yes"}, "trialData": {"rt": 8266, "hit": "participant_16", "trial": 18, "response_speaker": "human", "machine_groundtruth": "gpt3 (prompt curie)", "imageID": 16, "caption": "mystic", "counterbalance": 0, "groundtruth": "human", "phase": "TEST", "human_groundtruth": "", "real_gender": "male", "guess_gender": "female"}}, "Trial_19": {"workerID": "AA2C6B86V30SB", "workerData": {"country": "United States", "age": "31-35", "engagement": "3", "difficulty": "3", "mode": "live", "gender": "male", "education": "bachelor", "condition": 0, "native": "yes"}, "trialData": {"rt": 6930, "hit": "participant_48", "trial": 19, "response_speaker": "human", "machine_groundtruth": " gpt3 (embedding)", "imageID": 48, "caption": "military", "counterbalance": 0, "groundtruth": "AI", "phase": "TEST", "human_groundtruth": "", "real_gender": "AI", "guess_gender": "male"}}, "Trial_20": {"workerID": "AA2C6B86V30SB", "workerData": {"country": "United States", "age": "31-35", "engagement": "3", "difficulty": "3", "mode": "live", "gender": "male", "education": "bachelor", "condition": 0, "native": "yes"}, "trialData": {"rt": 5864, "hit": "participant_26", "trial": 20, "response_speaker": "human", "machine_groundtruth": " gpt3 (embedding)", "imageID": 26, "caption": "ordinary", "counterbalance": 0, "groundtruth": "human", "phase": "TEST", "human_groundtruth": "", "real_gender": "female", "guess_gender": "male"}}, "Trial_21": {"workerID": "AA2C6B86V30SB", "workerData": {"country": "United States", "age": "31-35", "engagement": "3", "difficulty": "3", "mode": "live", "gender": "male", "education": "bachelor", "condition": 0, "native": "yes"}, "trialData": {"rt": 5998, "hit": "participant_119", "trial": 21, "response_speaker": "human", "machine_groundtruth": " gpt3 (embedding)", "imageID": 119, "caption": "assume", "counterbalance": 0, "groundtruth": "human", "phase": "TEST", "human_groundtruth": "", "real_gender": "male", "guess_gender": "female"}}, "Trial_22": {"workerID": "AA2C6B86V30SB", "workerData": {"country": "United States", "age": "31-35", "engagement": "3", "difficulty": "3", "mode": "live", "gender": "male", "education": "bachelor", "condition": 0, "native": "yes"}, "trialData": {"rt": 5349, "hit": "participant_90", "trial": 22, "response_speaker": "human", "machine_groundtruth": "gpt3 (prompt davinvci)", "imageID": 90, "caption": "maid", "counterbalance": 0, "groundtruth": "AI", "phase": "TEST", "human_groundtruth": "", "real_gender": "AI", "guess_gender": "female"}}, "Trial_23": {"workerID": "AA2C6B86V30SB", "workerData": {"country": "United States", "age": "31-35", "engagement": "3", "difficulty": "3", "mode": "live", "gender": "male", "education": "bachelor", "condition": 0, "native": "yes"}, "trialData": {"rt": 6007, "hit": "participant_131", "trial": 23, "response_speaker": "AI", "machine_groundtruth": "word2vec", "imageID": 131, "caption": "bloodshed", "counterbalance": 0, "groundtruth": "AI", "phase": "TEST", "human_groundtruth": "", "real_gender": "AI", "guess_gender": "female"}}, "Trial_24": {"workerID": "AA2C6B86V30SB", "workerData": {"country": "United States", "age": "31-35", "engagement": "3", "difficulty": "3", "mode": "live", "gender": "male", "education": "bachelor", "condition": 0, "native": "yes"}, "trialData": {"rt": 6849, "hit": "participant_5", "trial": 24, "response_speaker": "AI", "machine_groundtruth": "word2vec", "imageID": 5, "caption": "nepal", "counterbalance": 0, "groundtruth": "human", "phase": "TEST", "human_groundtruth": "", "real_gender": "male", "guess_gender": "male"}}, "Trial_25": {"workerID": "AA2C6B86V30SB", "workerData": {"country": "United States", "age": "31-35", "engagement": "3", "difficulty": "3", "mode": "live", "gender": "male", "education": "bachelor", "condition": 0, "native": "yes"}, "trialData": {"rt": 5399, "hit": "participant_87", "trial": 25, "response_speaker": "human", "machine_groundtruth": "word2vec", "imageID": 87, "caption": "foot", "counterbalance": 0, "groundtruth": "human", "phase": "TEST", "human_groundtruth": "", "real_gender": "male", "guess_gender": "male"}}, "Trial_26": {"workerID": "AA2C6B86V30SB", "workerData": {"country": "United States", "age": "31-35", "engagement": "3", "difficulty": "3", "mode": "live", "gender": "male", "education": "bachelor", "condition": 0, "native": "yes"}, "trialData": {"rt": 4893, "hit": "participant_82", "trial": 26, "response_speaker": "human", "machine_groundtruth": " gpt3 (embedding)", "imageID": 82, "caption": "spoon", "counterbalance": 0, "groundtruth": "AI", "phase": "TEST", "human_groundtruth": "", "real_gender": "AI", "guess_gender": "male"}}, "Trial_27": {"workerID": "AA2C6B86V30SB", "workerData": {"country": "United States", "age": "31-35", "engagement": "3", "difficulty": "3", "mode": "live", "gender": "male", "education": "bachelor", "condition": 0, "native": "yes"}, "trialData": {"rt": 4708, "hit": "participant_31", "trial": 27, "response_speaker": "AI", "machine_groundtruth": " gpt3 (embedding)", "imageID": 31, "caption": "exponential", "counterbalance": 0, "groundtruth": "human", "phase": "TEST", "human_groundtruth": "", "real_gender": "female", "guess_gender": "male"}}, "Trial_28": {"workerID": "AA2C6B86V30SB", "workerData": {"country": "United States", "age": "31-35", "engagement": "3", "difficulty": "3", "mode": "live", "gender": "male", "education": "bachelor", "condition": 0, "native": "yes"}, "trialData": {"rt": 5903, "hit": "participant_15", "trial": 28, "response_speaker": "human", "machine_groundtruth": " gpt3 (embedding)", "imageID": 15, "caption": "conceptual", "counterbalance": 0, "groundtruth": "human", "phase": "TEST", "human_groundtruth": "", "real_gender": "male", "guess_gender": "male"}}, "Trial_29": {"workerID": "AA2C6B86V30SB", "workerData": {"country": "United States", "age": "31-35", "engagement": "3", "difficulty": "3", "mode": "live", "gender": "male", "education": "bachelor", "condition": 0, "native": "yes"}, "trialData": {"rt": 6905, "hit": "participant_143", "trial": 29, "response_speaker": "AI", "machine_groundtruth": " gpt3 (embedding)", "imageID": 143, "caption": "approve", "counterbalance": 0, "groundtruth": "human", "phase": "TEST", "human_groundtruth": "", "real_gender": "female", "guess_gender": "male"}}, "Trial_30": {"workerID": "AA2C6B86V30SB", "workerData": {"country": "United States", "age": "31-35", "engagement": "3", "difficulty": "3", "mode": "live", "gender": "male", "education": "bachelor", "condition": 0, "native": "yes"}, "trialData": {"rt": 4795, "hit": "participant_92", "trial": 30, "response_speaker": "human", "machine_groundtruth": " gpt3 (embedding)", "imageID": 92, "caption": "constitute", "counterbalance": 0, "groundtruth": "human", "phase": "TEST", "human_groundtruth": "", "real_gender": "female", "guess_gender": "male"}}, "Trial_31": {"workerID": "AA2C6B86V30SB", "workerData": {"country": "United States", "age": "31-35", "engagement": "3", "difficulty": "3", "mode": "live", "gender": "male", "education": "bachelor", "condition": 0, "native": "yes"}, "trialData": {"rt": 6223, "hit": "participant_60", "trial": 31, "response_speaker": "AI", "machine_groundtruth": "word2vec", "imageID": 60, "caption": "revelation", "counterbalance": 0, "groundtruth": "AI", "phase": "TEST", "human_groundtruth": "", "real_gender": "AI", "guess_gender": "female"}}, "Trial_32": {"workerID": "AA2C6B86V30SB", "workerData": {"country": "United States", "age": "31-35", "engagement": "3", "difficulty": "3", "mode": "live", "gender": "male", "education": "bachelor", "condition": 0, "native": "yes"}, "trialData": {"rt": 14284, "hit": "participant_25", "trial": 32, "response_speaker": "human", "machine_groundtruth": " gpt3 (embedding)", "imageID": 25, "caption": "psychotic", "counterbalance": 0, "groundtruth": "AI", "phase": "TEST", "human_groundtruth": "", "real_gender": "AI", "guess_gender": "male"}}, "Trial_33": {"workerID": "AA2C6B86V30SB", "workerData": {"country": "United States", "age": "31-35", "engagement": "3", "difficulty": "3", "mode": "live", "gender": "male", "education": "bachelor", "condition": 0, "native": "yes"}, "trialData": {"rt": 7521, "hit": "participant_79", "trial": 33, "response_speaker": "AI", "machine_groundtruth": " gpt3 (embedding)", "imageID": 79, "caption": "blunt", "counterbalance": 0, "groundtruth": "human", "phase": "TEST", "human_groundtruth": "", "real_gender": "male", "guess_gender": "female"}}, "Trial_34": {"workerID": "AA2C6B86V30SB", "workerData": {"country": "United States", "age": "31-35", "engagement": "3", "difficulty": "3", "mode": "live", "gender": "male", "education": "bachelor", "condition": 0, "native": "yes"}, "trialData": {"rt": 13728, "hit": "participant_50", "trial": 34, "response_speaker": "AI", "machine_groundtruth": " gpt3 (embedding)", "imageID": 50, "caption": "spark", "counterbalance": 0, "groundtruth": "AI", "phase": "TEST", "human_groundtruth": "", "real_gender": "AI", "guess_gender": "male"}}, "Trial_35": {"workerID": "AA2C6B86V30SB", "workerData": {"country": "United States", "age": "31-35", "engagement": "3", "difficulty": "3", "mode": "live", "gender": "male", "education": "bachelor", "condition": 0, "native": "yes"}, "trialData": {"rt": 180120, "hit": "participant_23", "trial": 35, "response_speaker": "human", "machine_groundtruth": "word2vec", "imageID": 23, "caption": "impressive", "counterbalance": 0, "groundtruth": "AI", "phase": "TEST", "human_groundtruth": "", "real_gender": "AI", "guess_gender": "male"}}, "Trial_36": {"workerID": "AA2C6B86V30SB", "workerData": {"country": "United States", "age": "31-35", "engagement": "3", "difficulty": "3", "mode": "live", "gender": "male", "education": "bachelor", "condition": 0, "native": "yes"}, "trialData": {"rt": 5768, "hit": "participant_68", "trial": 36, "response_speaker": "AI", "machine_groundtruth": "word2vec", "imageID": 68, "caption": "triangle", "counterbalance": 0, "groundtruth": "human", "phase": "TEST", "human_groundtruth": "", "real_gender": "male", "guess_gender": "female"}}, "Trial_37": {"workerID": "AA2C6B86V30SB", "workerData": {"country": "United States", "age": "31-35", "engagement": "3", "difficulty": "3", "mode": "live", "gender": "male", "education": "bachelor", "condition": 0, "native": "yes"}, "trialData": {"rt": 7498, "hit": "participant_40", "trial": 37, "response_speaker": "human", "machine_groundtruth": "gpt2", "imageID": 40, "caption": "vocal", "counterbalance": 0, "groundtruth": "AI", "phase": "TEST", "human_groundtruth": "", "real_gender": "AI", "guess_gender": "female"}}, "Trial_38": {"workerID": "AA2C6B86V30SB", "workerData": {"country": "United States", "age": "31-35", "engagement": "3", "difficulty": "3", "mode": "live", "gender": "male", "education": "bachelor", "condition": 0, "native": "yes"}, "trialData": {"rt": 6232, "hit": "participant_114", "trial": 38, "response_speaker": "human", "machine_groundtruth": " gpt3 (embedding)", "imageID": 114, "caption": "infrared", "counterbalance": 0, "groundtruth": "AI", "phase": "TEST", "human_groundtruth": "", "real_gender": "AI", "guess_gender": "female"}}, "Trial_39": {"workerID": "AA2C6B86V30SB", "workerData": {"country": "United States", "age": "31-35", "engagement": "3", "difficulty": "3", "mode": "live", "gender": "male", "education": "bachelor", "condition": 0, "native": "yes"}, "trialData": {"rt": 5535, "hit": "participant_104", "trial": 39, "response_speaker": "human", "machine_groundtruth": " gpt3 (embedding)", "imageID": 104, "caption": "slow", "counterbalance": 0, "groundtruth": "human", "phase": "TEST", "human_groundtruth": "", "real_gender": "female", "guess_gender": "male"}}, "Trial_40": {"workerID": "AA2C6B86V30SB", "workerData": {"country": "United States", "age": "31-35", "engagement": "3", "difficulty": "3", "mode": "live", "gender": "male", "education": "bachelor", "condition": 0, "native": "yes"}, "trialData": {"rt": 5584, "hit": "participant_37", "trial": 40, "response_speaker": "human", "machine_groundtruth": " gpt3 (embedding)", "imageID": 37, "caption": "intangible", "counterbalance": 0, "groundtruth": "human", "phase": "TEST", "human_groundtruth": "", "real_gender": "male", "guess_gender": "female"}}, "Trial_41": {"workerID": "AA2C6B86V30SB", "workerData": {"country": "United States", "age": "31-35", "engagement": "3", "difficulty": "3", "mode": "live", "gender": "male", "education": "bachelor", "condition": 0, "native": "yes"}, "trialData": {"rt": 5696, "hit": "participant_22", "trial": 41, "response_speaker": "human", "machine_groundtruth": "word2vec", "imageID": 22, "caption": "attentive", "counterbalance": 0, "groundtruth": "AI", "phase": "TEST", "human_groundtruth": "", "real_gender": "AI", "guess_gender": "male"}}, "Trial_42": {"workerID": "AA2C6B86V30SB", "workerData": {"country": "United States", "age": "31-35", "engagement": "3", "difficulty": "3", "mode": "live", "gender": "male", "education": "bachelor", "condition": 0, "native": "yes"}, "trialData": {"rt": 4326, "hit": "participant_107", "trial": 42, "response_speaker": "human", "machine_groundtruth": "word2vec", "imageID": 107, "caption": "rotten", "counterbalance": 0, "groundtruth": "human", "phase": "TEST", "human_groundtruth": "", "real_gender": "male", "guess_gender": "male"}}, "Trial_43": {"workerID": "AA2C6B86V30SB", "workerData": {"country": "United States", "age": "31-35", "engagement": "3", "difficulty": "3", "mode": "live", "gender": "male", "education": "bachelor", "condition": 0, "native": "yes"}, "trialData": {"rt": 4782, "hit": "participant_134", "trial": 43, "response_speaker": "human", "machine_groundtruth": "word2vec", "imageID": 134, "caption": "shed", "counterbalance": 0, "groundtruth": "human", "phase": "TEST", "human_groundtruth": "", "real_gender": "male", "guess_gender": "male"}}, "Trial_44": {"workerID": "AA2C6B86V30SB", "workerData": {"country": "United States", "age": "31-35", "engagement": "3", "difficulty": "3", "mode": "live", "gender": "male", "education": "bachelor", "condition": 0, "native": "yes"}, "trialData": {"rt": 5125, "hit": "participant_123", "trial": 44, "response_speaker": "human", "machine_groundtruth": "word2vec", "imageID": 123, "caption": "watershed", "counterbalance": 0, "groundtruth": "human", "phase": "TEST", "human_groundtruth": "", "real_gender": "male", "guess_gender": "male"}}, "Trial_45": {"workerID": "AA2C6B86V30SB", "workerData": {"country": "United States", "age": "31-35", "engagement": "3", "difficulty": "3", "mode": "live", "gender": "male", "education": "bachelor", "condition": 0, "native": "yes"}, "trialData": {"rt": 4244, "hit": "participant_35", "trial": 45, "response_speaker": "human", "machine_groundtruth": " gpt3 (embedding)", "imageID": 35, "caption": "sluggish", "counterbalance": 0, "groundtruth": "AI", "phase": "TEST", "human_groundtruth": "", "real_gender": "AI", "guess_gender": "male"}}, "Trial_46": {"workerID": "AA2C6B86V30SB", "workerData": {"country": "United States", "age": "31-35", "engagement": "3", "difficulty": "3", "mode": "live", "gender": "male", "education": "bachelor", "condition": 0, "native": "yes"}, "trialData": {"rt": 3860, "hit": "participant_89", "trial": 46, "response_speaker": "AI", "machine_groundtruth": "gpt3 (prompt curie)", "imageID": 89, "caption": "legion", "counterbalance": 0, "groundtruth": "AI", "phase": "TEST", "human_groundtruth": "", "real_gender": "AI", "guess_gender": "male"}}, "Trial_47": {"workerID": "AA2C6B86V30SB", "workerData": {"country": "United States", "age": "31-35", "engagement": "3", "difficulty": "3", "mode": "live", "gender": "male", "education": "bachelor", "condition": 0, "native": "yes"}, "trialData": {"rt": 9941, "hit": "participant_136", "trial": 47, "response_speaker": "AI", "machine_groundtruth": "gpt3 (prompt curie)", "imageID": 136, "caption": "sacred", "counterbalance": 0, "groundtruth": "human", "phase": "TEST", "human_groundtruth": "", "real_gender": "male", "guess_gender": "male"}}, "Trial_48": {"workerID": "AA2C6B86V30SB", "workerData": {"country": "United States", "age": "31-35", "engagement": "3", "difficulty": "3", "mode": "live", "gender": "male", "education": "bachelor", "condition": 0, "native": "yes"}, "trialData": {"rt": 13779, "hit": "participant_75", "trial": 48, "response_speaker": "AI", "machine_groundtruth": "gpt3 (prompt curie)", "imageID": 75, "caption": "analysis", "counterbalance": 0, "groundtruth": "human", "phase": "TEST", "human_groundtruth": "", "real_gender": "female", "guess_gender": "female"}}, "Trial_49": {"workerID": "AA2C6B86V30SB", "workerData": {"country": "United States", "age": "31-35", "engagement": "3", "difficulty": "3", "mode": "live", "gender": "male", "education": "bachelor", "condition": 0, "native": "yes"}, "trialData": {"rt": 6598, "hit": "participant_115", "trial": 49, "response_speaker": "AI", "machine_groundtruth": "gpt3 (prompt davinvci)", "imageID": 115, "caption": "hundred", "counterbalance": 0, "groundtruth": "AI", "phase": "TEST", "human_groundtruth": "", "real_gender": "AI", "guess_gender": "male"}}, "Trial_50": {"workerID": "AA2C6B86V30SB", "workerData": {"country": "United States", "age": "31-35", "engagement": "3", "difficulty": "3", "mode": "live", "gender": "male", "education": "bachelor", "condition": 0, "native": "yes"}, "trialData": {"rt": 13337, "hit": "participant_70", "trial": 50, "response_speaker": "human", "machine_groundtruth": "gpt3 (prompt curie)", "imageID": 70, "caption": "heroin", "counterbalance": 0, "groundtruth": "AI", "phase": "TEST", "human_groundtruth": "", "real_gender": "AI", "guess_gender": "male"}}, "Trial_51": {"workerID": "A19ZWBQT8A3LIR", "workerData": {"country": "United States", "age": "31-35", "engagement": "5", "difficulty": "5", "mode": "live", "gender": "male", "education": "bachelor", "condition": 0, "native": "yes"}, "trialData": {"rt": 5549, "hit": "participant_119", "trial": 1, "response_speaker": "human", "machine_groundtruth": "word2vec", "imageID": 119, "caption": "assume", "counterbalance": 0, "groundtruth": "human", "phase": "TEST", "human_groundtruth": "", "real_gender": "male", "guess_gender": "female"}}, "Trial_52": {"workerID": "A19ZWBQT8A3LIR", "workerData": {"country": "United States", "age": "31-35", "engagement": "5", "difficulty": "5", "mode": "live", "gender": "male", "education": "bachelor", "condition": 0, "native": "yes"}, "trialData": {"rt": 7155, "hit": "participant_40", "trial": 2, "response_speaker": "human", "machine_groundtruth": "word2vec", "imageID": 40, "caption": "vocal", "counterbalance": 0, "groundtruth": "human", "phase": "TEST", "human_groundtruth": "", "real_gender": "male", "guess_gender": "female"}}, "Trial_53": {"workerID": "A19ZWBQT8A3LIR", "workerData": {"country": "United States", "age": "31-35", "engagement": "5", "difficulty": "5", "mode": "live", "gender": "male", "education": "bachelor", "condition": 0, "native": "yes"}, "trialData": {"rt": 19505, "hit": "participant_37", "trial": 3, "response_speaker": "AI", "machine_groundtruth": "word2vec", "imageID": 37, "caption": "intangible", "counterbalance": 0, "groundtruth": "human", "phase": "TEST", "human_groundtruth": "", "real_gender": "male", "guess_gender": "male"}}, "Trial_54": {"workerID": "A19ZWBQT8A3LIR", "workerData": {"country": "United States", "age": "31-35", "engagement": "5", "difficulty": "5", "mode": "live", "gender": "male", "education": "bachelor", "condition": 0, "native": "yes"}, "trialData": {"rt": 6446, "hit": "participant_91", "trial": 4, "response_speaker": "AI", "machine_groundtruth": "word2vec", "imageID": 91, "caption": "brighton", "counterbalance": 0, "groundtruth": "human", "phase": "TEST", "human_groundtruth": "", "real_gender": "male", "guess_gender": "male"}}, "Trial_55": {"workerID": "A19ZWBQT8A3LIR", "workerData": {"country": "United States", "age": "31-35", "engagement": "5", "difficulty": "5", "mode": "live", "gender": "male", "education": "bachelor", "condition": 0, "native": "yes"}, "trialData": {"rt": 6681, "hit": "participant_117", "trial": 5, "response_speaker": "human", "machine_groundtruth": "gpt3 (prompt curie)", "imageID": 117, "caption": "ding", "counterbalance": 0, "groundtruth": "AI", "phase": "TEST", "human_groundtruth": "", "real_gender": "AI", "guess_gender": "male"}}, "Trial_56": {"workerID": "A19ZWBQT8A3LIR", "workerData": {"country": "United States", "age": "31-35", "engagement": "5", "difficulty": "5", "mode": "live", "gender": "male", "education": "bachelor", "condition": 0, "native": "yes"}, "trialData": {"rt": 4478, "hit": "participant_109", "trial": 6, "response_speaker": "human", "machine_groundtruth": " gpt3 (embedding)", "imageID": 109, "caption": "kindergarten", "counterbalance": 0, "groundtruth": "AI", "phase": "TEST", "human_groundtruth": "", "real_gender": "AI", "guess_gender": "female"}}, "Trial_57": {"workerID": "A19ZWBQT8A3LIR", "workerData": {"country": "United States", "age": "31-35", "engagement": "5", "difficulty": "5", "mode": "live", "gender": "male", "education": "bachelor", "condition": 0, "native": "yes"}, "trialData": {"rt": 4857, "hit": "participant_68", "trial": 7, "response_speaker": "human", "machine_groundtruth": "gpt3 (prompt curie)", "imageID": 68, "caption": "triangle", "counterbalance": 0, "groundtruth": "AI", "phase": "TEST", "human_groundtruth": "", "real_gender": "AI", "guess_gender": "male"}}, "Trial_58": {"workerID": "A19ZWBQT8A3LIR", "workerData": {"country": "United States", "age": "31-35", "engagement": "5", "difficulty": "5", "mode": "live", "gender": "male", "education": "bachelor", "condition": 0, "native": "yes"}, "trialData": {"rt": 62966, "hit": "participant_2", "trial": 8, "response_speaker": "human", "machine_groundtruth": "gpt2", "imageID": 2, "caption": "risky", "counterbalance": 0, "groundtruth": "AI", "phase": "TEST", "human_groundtruth": "", "real_gender": "AI", "guess_gender": "female"}}, "Trial_59": {"workerID": "A19ZWBQT8A3LIR", "workerData": {"country": "United States", "age": "31-35", "engagement": "5", "difficulty": "5", "mode": "live", "gender": "male", "education": "bachelor", "condition": 0, "native": "yes"}, "trialData": {"rt": 27100, "hit": "participant_130", "trial": 9, "response_speaker": "human", "machine_groundtruth": "gpt2", "imageID": 130, "caption": "shred", "counterbalance": 0, "groundtruth": "human", "phase": "TEST", "human_groundtruth": "", "real_gender": "female", "guess_gender": "male"}}, "Trial_60": {"workerID": "A19ZWBQT8A3LIR", "workerData": {"country": "United States", "age": "31-35", "engagement": "5", "difficulty": "5", "mode": "live", "gender": "male", "education": "bachelor", "condition": 0, "native": "yes"}, "trialData": {"rt": 11239, "hit": "participant_26", "trial": 10, "response_speaker": "human", "machine_groundtruth": "gpt2", "imageID": 26, "caption": "ordinary", "counterbalance": 0, "groundtruth": "human", "phase": "TEST", "human_groundtruth": "", "real_gender": "male", "guess_gender": "female"}}, "Trial_61": {"workerID": "A19ZWBQT8A3LIR", "workerData": {"country": "United States", "age": "31-35", "engagement": "5", "difficulty": "5", "mode": "live", "gender": "male", "education": "bachelor", "condition": 0, "native": "yes"}, "trialData": {"rt": 6782, "hit": "participant_9", "trial": 11, "response_speaker": "AI", "machine_groundtruth": "gpt3 (prompt davinvci)", "imageID": 9, "caption": "oriental", "counterbalance": 0, "groundtruth": "AI", "phase": "TEST", "human_groundtruth": "", "real_gender": "AI", "guess_gender": "female"}}, "Trial_62": {"workerID": "A19ZWBQT8A3LIR", "workerData": {"country": "United States", "age": "31-35", "engagement": "5", "difficulty": "5", "mode": "live", "gender": "male", "education": "bachelor", "condition": 0, "native": "yes"}, "trialData": {"rt": 6646, "hit": "participant_120", "trial": 12, "response_speaker": "human", "machine_groundtruth": " gpt3 (embedding)", "imageID": 120, "caption": "identify", "counterbalance": 0, "groundtruth": "AI", "phase": "TEST", "human_groundtruth": "", "real_gender": "AI", "guess_gender": "male"}}, "Trial_63": {"workerID": "A19ZWBQT8A3LIR", "workerData": {"country": "United States", "age": "31-35", "engagement": "5", "difficulty": "5", "mode": "live", "gender": "male", "education": "bachelor", "condition": 0, "native": "yes"}, "trialData": {"rt": 4871, "hit": "participant_95", "trial": 13, "response_speaker": "human", "machine_groundtruth": " gpt3 (embedding)", "imageID": 95, "caption": "wendy", "counterbalance": 0, "groundtruth": "human", "phase": "TEST", "human_groundtruth": "", "real_gender": "male", "guess_gender": "male"}}, "Trial_64": {"workerID": "A19ZWBQT8A3LIR", "workerData": {"country": "United States", "age": "31-35", "engagement": "5", "difficulty": "5", "mode": "live", "gender": "male", "education": "bachelor", "condition": 0, "native": "yes"}, "trialData": {"rt": 4115, "hit": "participant_69", "trial": 14, "response_speaker": "human", "machine_groundtruth": " gpt3 (embedding)", "imageID": 69, "caption": "cancer", "counterbalance": 0, "groundtruth": "AI", "phase": "TEST", "human_groundtruth": "", "real_gender": "AI", "guess_gender": "female"}}, "Trial_65": {"workerID": "A19ZWBQT8A3LIR", "workerData": {"country": "United States", "age": "31-35", "engagement": "5", "difficulty": "5", "mode": "live", "gender": "male", "education": "bachelor", "condition": 0, "native": "yes"}, "trialData": {"rt": 55125, "hit": "participant_72", "trial": 15, "response_speaker": "human", "machine_groundtruth": " gpt3 (embedding)", "imageID": 72, "caption": "cash", "counterbalance": 0, "groundtruth": "human", "phase": "TEST", "human_groundtruth": "", "real_gender": "male", "guess_gender": "male"}}, "Trial_66": {"workerID": "A19ZWBQT8A3LIR", "workerData": {"country": "United States", "age": "31-35", "engagement": "5", "difficulty": "5", "mode": "live", "gender": "male", "education": "bachelor", "condition": 0, "native": "yes"}, "trialData": {"rt": 8076, "hit": "participant_76", "trial": 16, "response_speaker": "AI", "machine_groundtruth": "gpt3 (prompt davinvci)", "imageID": 76, "caption": "clarity", "counterbalance": 0, "groundtruth": "AI", "phase": "TEST", "human_groundtruth": "", "real_gender": "AI", "guess_gender": "female"}}, "Trial_67": {"workerID": "A19ZWBQT8A3LIR", "workerData": {"country": "United States", "age": "31-35", "engagement": "5", "difficulty": "5", "mode": "live", "gender": "male", "education": "bachelor", "condition": 0, "native": "yes"}, "trialData": {"rt": 6680, "hit": "participant_106", "trial": 17, "response_speaker": "human", "machine_groundtruth": "gpt2", "imageID": 106, "caption": "kindle", "counterbalance": 0, "groundtruth": "AI", "phase": "TEST", "human_groundtruth": "", "real_gender": "AI", "guess_gender": "female"}}, "Trial_68": {"workerID": "A19ZWBQT8A3LIR", "workerData": {"country": "United States", "age": "31-35", "engagement": "5", "difficulty": "5", "mode": "live", "gender": "male", "education": "bachelor", "condition": 0, "native": "yes"}, "trialData": {"rt": 4027, "hit": "participant_103", "trial": 18, "response_speaker": "human", "machine_groundtruth": "word2vec", "imageID": 103, "caption": "fall", "counterbalance": 0, "groundtruth": "AI", "phase": "TEST", "human_groundtruth": "", "real_gender": "AI", "guess_gender": "female"}}, "Trial_69": {"workerID": "A19ZWBQT8A3LIR", "workerData": {"country": "United States", "age": "31-35", "engagement": "5", "difficulty": "5", "mode": "live", "gender": "male", "education": "bachelor", "condition": 0, "native": "yes"}, "trialData": {"rt": 4488, "hit": "participant_71", "trial": 19, "response_speaker": "AI", "machine_groundtruth": "word2vec", "imageID": 71, "caption": "velocity", "counterbalance": 0, "groundtruth": "AI", "phase": "TEST", "human_groundtruth": "", "real_gender": "AI", "guess_gender": "male"}}, "Trial_70": {"workerID": "A19ZWBQT8A3LIR", "workerData": {"country": "United States", "age": "31-35", "engagement": "5", "difficulty": "5", "mode": "live", "gender": "male", "education": "bachelor", "condition": 0, "native": "yes"}, "trialData": {"rt": 4083, "hit": "participant_141", "trial": 20, "response_speaker": "human", "machine_groundtruth": "word2vec", "imageID": 141, "caption": "kindred", "counterbalance": 0, "groundtruth": "human", "phase": "TEST", "human_groundtruth": "", "real_gender": "male", "guess_gender": "male"}}, "Trial_71": {"workerID": "A19ZWBQT8A3LIR", "workerData": {"country": "United States", "age": "31-35", "engagement": "5", "difficulty": "5", "mode": "live", "gender": "male", "education": "bachelor", "condition": 0, "native": "yes"}, "trialData": {"rt": 5050, "hit": "participant_104", "trial": 21, "response_speaker": "human", "machine_groundtruth": "word2vec", "imageID": 104, "caption": "slow", "counterbalance": 0, "groundtruth": "human", "phase": "TEST", "human_groundtruth": "", "real_gender": "female", "guess_gender": "male"}}, "Trial_72": {"workerID": "A19ZWBQT8A3LIR", "workerData": {"country": "United States", "age": "31-35", "engagement": "5", "difficulty": "5", "mode": "live", "gender": "male", "education": "bachelor", "condition": 0, "native": "yes"}, "trialData": {"rt": 4387, "hit": "participant_60", "trial": 22, "response_speaker": "human", "machine_groundtruth": "word2vec", "imageID": 60, "caption": "revelation", "counterbalance": 0, "groundtruth": "human", "phase": "TEST", "human_groundtruth": "", "real_gender": "male", "guess_gender": "female"}}, "Trial_73": {"workerID": "A19ZWBQT8A3LIR", "workerData": {"country": "United States", "age": "31-35", "engagement": "5", "difficulty": "5", "mode": "live", "gender": "male", "education": "bachelor", "condition": 0, "native": "yes"}, "trialData": {"rt": 8010, "hit": "participant_30", "trial": 23, "response_speaker": "human", "machine_groundtruth": "gpt3 (prompt davinvci)", "imageID": 30, "caption": "ingenious", "counterbalance": 0, "groundtruth": "AI", "phase": "TEST", "human_groundtruth": "", "real_gender": "AI", "guess_gender": "female"}}, "Trial_74": {"workerID": "A19ZWBQT8A3LIR", "workerData": {"country": "United States", "age": "31-35", "engagement": "5", "difficulty": "5", "mode": "live", "gender": "male", "education": "bachelor", "condition": 0, "native": "yes"}, "trialData": {"rt": 3644, "hit": "participant_0", "trial": 24, "response_speaker": "human", "machine_groundtruth": "gpt3 (prompt davinvci)", "imageID": 0, "caption": "memorable", "counterbalance": 0, "groundtruth": "human", "phase": "TEST", "human_groundtruth": "", "real_gender": "female", "guess_gender": "female"}}, "Trial_75": {"workerID": "A19ZWBQT8A3LIR", "workerData": {"country": "United States", "age": "31-35", "engagement": "5", "difficulty": "5", "mode": "live", "gender": "male", "education": "bachelor", "condition": 0, "native": "yes"}, "trialData": {"rt": 3834, "hit": "participant_100", "trial": 25, "response_speaker": "human", "machine_groundtruth": "gpt3 (prompt davinvci)", "imageID": 100, "caption": "consider", "counterbalance": 0, "groundtruth": "human", "phase": "TEST", "human_groundtruth": "", "real_gender": "male", "guess_gender": "male"}}, "Trial_76": {"workerID": "A19ZWBQT8A3LIR", "workerData": {"country": "United States", "age": "31-35", "engagement": "5", "difficulty": "5", "mode": "live", "gender": "male", "education": "bachelor", "condition": 0, "native": "yes"}, "trialData": {"rt": 3441, "hit": "participant_96", "trial": 26, "response_speaker": "human", "machine_groundtruth": "gpt3 (prompt davinvci)", "imageID": 96, "caption": "teammate", "counterbalance": 0, "groundtruth": "human", "phase": "TEST", "human_groundtruth": "", "real_gender": "female", "guess_gender": "male"}}, "Trial_77": {"workerID": "A19ZWBQT8A3LIR", "workerData": {"country": "United States", "age": "31-35", "engagement": "5", "difficulty": "5", "mode": "live", "gender": "male", "education": "bachelor", "condition": 0, "native": "yes"}, "trialData": {"rt": 3060, "hit": "participant_56", "trial": 27, "response_speaker": "human", "machine_groundtruth": "gpt3 (prompt curie)", "imageID": 56, "caption": "grasp", "counterbalance": 0, "groundtruth": "AI", "phase": "TEST", "human_groundtruth": "", "real_gender": "AI", "guess_gender": "female"}}, "Trial_78": {"workerID": "A19ZWBQT8A3LIR", "workerData": {"country": "United States", "age": "31-35", "engagement": "5", "difficulty": "5", "mode": "live", "gender": "male", "education": "bachelor", "condition": 0, "native": "yes"}, "trialData": {"rt": 4668, "hit": "participant_92", "trial": 28, "response_speaker": "AI", "machine_groundtruth": "gpt3 (prompt curie)", "imageID": 92, "caption": "constitute", "counterbalance": 0, "groundtruth": "human", "phase": "TEST", "human_groundtruth": "", "real_gender": "female", "guess_gender": "female"}}, "Trial_79": {"workerID": "A19ZWBQT8A3LIR", "workerData": {"country": "United States", "age": "31-35", "engagement": "5", "difficulty": "5", "mode": "live", "gender": "male", "education": "bachelor", "condition": 0, "native": "yes"}, "trialData": {"rt": 31757, "hit": "participant_144", "trial": 29, "response_speaker": "human", "machine_groundtruth": "gpt3 (prompt curie)", "imageID": 144, "caption": "hatred", "counterbalance": 0, "groundtruth": "human", "phase": "TEST", "human_groundtruth": "", "real_gender": "male", "guess_gender": "male"}}, "Trial_80": {"workerID": "A19ZWBQT8A3LIR", "workerData": {"country": "United States", "age": "31-35", "engagement": "5", "difficulty": "5", "mode": "live", "gender": "male", "education": "bachelor", "condition": 0, "native": "yes"}, "trialData": {"rt": 4489, "hit": "participant_47", "trial": 30, "response_speaker": "human", "machine_groundtruth": "gpt3 (prompt curie)", "imageID": 47, "caption": "possible", "counterbalance": 0, "groundtruth": "human", "phase": "TEST", "human_groundtruth": "", "real_gender": "male", "guess_gender": "female"}}, "Trial_81": {"workerID": "A19ZWBQT8A3LIR", "workerData": {"country": "United States", "age": "31-35", "engagement": "5", "difficulty": "5", "mode": "live", "gender": "male", "education": "bachelor", "condition": 0, "native": "yes"}, "trialData": {"rt": 6288, "hit": "participant_86", "trial": 31, "response_speaker": "AI", "machine_groundtruth": "gpt2", "imageID": 86, "caption": "renaissance", "counterbalance": 0, "groundtruth": "AI", "phase": "TEST", "human_groundtruth": "", "real_gender": "AI", "guess_gender": "female"}}, "Trial_82": {"workerID": "A19ZWBQT8A3LIR", "workerData": {"country": "United States", "age": "31-35", "engagement": "5", "difficulty": "5", "mode": "live", "gender": "male", "education": "bachelor", "condition": 0, "native": "yes"}, "trialData": {"rt": 5030, "hit": "participant_32", "trial": 32, "response_speaker": "human", "machine_groundtruth": "gpt2", "imageID": 32, "caption": "simplistic", "counterbalance": 0, "groundtruth": "AI", "phase": "TEST", "human_groundtruth": "", "real_gender": "AI", "guess_gender": "male"}}, "Trial_83": {"workerID": "A19ZWBQT8A3LIR", "workerData": {"country": "United States", "age": "31-35", "engagement": "5", "difficulty": "5", "mode": "live", "gender": "male", "education": "bachelor", "condition": 0, "native": "yes"}, "trialData": {"rt": 40319, "hit": "participant_143", "trial": 33, "response_speaker": "AI", "machine_groundtruth": "gpt2", "imageID": 143, "caption": "approve", "counterbalance": 0, "groundtruth": "human", "phase": "TEST", "human_groundtruth": "", "real_gender": "male", "guess_gender": "male"}}, "Trial_84": {"workerID": "A19ZWBQT8A3LIR", "workerData": {"country": "United States", "age": "31-35", "engagement": "5", "difficulty": "5", "mode": "live", "gender": "male", "education": "bachelor", "condition": 0, "native": "yes"}, "trialData": {"rt": 4530, "hit": "participant_82", "trial": 34, "response_speaker": "human", "machine_groundtruth": "gpt2", "imageID": 82, "caption": "spoon", "counterbalance": 0, "groundtruth": "human", "phase": "TEST", "human_groundtruth": "", "real_gender": "male", "guess_gender": "male"}}, "Trial_85": {"workerID": "A19ZWBQT8A3LIR", "workerData": {"country": "United States", "age": "31-35", "engagement": "5", "difficulty": "5", "mode": "live", "gender": "male", "education": "bachelor", "condition": 0, "native": "yes"}, "trialData": {"rt": 4572, "hit": "participant_46", "trial": 35, "response_speaker": "human", "machine_groundtruth": "gpt2", "imageID": 46, "caption": "able", "counterbalance": 0, "groundtruth": "human", "phase": "TEST", "human_groundtruth": "", "real_gender": "male", "guess_gender": "male"}}, "Trial_86": {"workerID": "A19ZWBQT8A3LIR", "workerData": {"country": "United States", "age": "31-35", "engagement": "5", "difficulty": "5", "mode": "live", "gender": "male", "education": "bachelor", "condition": 0, "native": "yes"}, "trialData": {"rt": 6588, "hit": "participant_116", "trial": 36, "response_speaker": "human", "machine_groundtruth": "gpt2", "imageID": 116, "caption": "kitten", "counterbalance": 0, "groundtruth": "AI", "phase": "TEST", "human_groundtruth": "", "real_gender": "AI", "guess_gender": "female"}}, "Trial_87": {"workerID": "A19ZWBQT8A3LIR", "workerData": {"country": "United States", "age": "31-35", "engagement": "5", "difficulty": "5", "mode": "live", "gender": "male", "education": "bachelor", "condition": 0, "native": "yes"}, "trialData": {"rt": 11899, "hit": "participant_51", "trial": 37, "response_speaker": "human", "machine_groundtruth": "gpt2", "imageID": 51, "caption": "freight", "counterbalance": 0, "groundtruth": "AI", "phase": "TEST", "human_groundtruth": "", "real_gender": "AI", "guess_gender": "male"}}, "Trial_88": {"workerID": "A19ZWBQT8A3LIR", "workerData": {"country": "United States", "age": "31-35", "engagement": "5", "difficulty": "5", "mode": "live", "gender": "male", "education": "bachelor", "condition": 0, "native": "yes"}, "trialData": {"rt": 3633, "hit": "participant_1", "trial": 38, "response_speaker": "human", "machine_groundtruth": "gpt2", "imageID": 1, "caption": "heavy", "counterbalance": 0, "groundtruth": "human", "phase": "TEST", "human_groundtruth": "", "real_gender": "female", "guess_gender": "female"}}, "Trial_89": {"workerID": "A19ZWBQT8A3LIR", "workerData": {"country": "United States", "age": "31-35", "engagement": "5", "difficulty": "5", "mode": "live", "gender": "male", "education": "bachelor", "condition": 0, "native": "yes"}, "trialData": {"rt": 5757, "hit": "participant_38", "trial": 39, "response_speaker": "AI", "machine_groundtruth": "gpt2", "imageID": 38, "caption": "mammalian", "counterbalance": 0, "groundtruth": "human", "phase": "TEST", "human_groundtruth": "", "real_gender": "male", "guess_gender": "male"}}, "Trial_90": {"workerID": "A19ZWBQT8A3LIR", "workerData": {"country": "United States", "age": "31-35", "engagement": "5", "difficulty": "5", "mode": "live", "gender": "male", "education": "bachelor", "condition": 0, "native": "yes"}, "trialData": {"rt": 3791, "hit": "participant_13", "trial": 40, "response_speaker": "AI", "machine_groundtruth": "gpt3 (prompt curie)", "imageID": 13, "caption": "southeastern", "counterbalance": 0, "groundtruth": "AI", "phase": "TEST", "human_groundtruth": "", "real_gender": "AI", "guess_gender": "female"}}, "Trial_91": {"workerID": "A19ZWBQT8A3LIR", "workerData": {"country": "United States", "age": "31-35", "engagement": "5", "difficulty": "5", "mode": "live", "gender": "male", "education": "bachelor", "condition": 0, "native": "yes"}, "trialData": {"rt": 3981, "hit": "participant_57", "trial": 41, "response_speaker": "human", "machine_groundtruth": "gpt3 (prompt curie)", "imageID": 57, "caption": "wreck", "counterbalance": 0, "groundtruth": "AI", "phase": "TEST", "human_groundtruth": "", "real_gender": "AI", "guess_gender": "female"}}, "Trial_92": {"workerID": "A19ZWBQT8A3LIR", "workerData": {"country": "United States", "age": "31-35", "engagement": "5", "difficulty": "5", "mode": "live", "gender": "male", "education": "bachelor", "condition": 0, "native": "yes"}, "trialData": {"rt": 3757, "hit": "participant_129", "trial": 42, "response_speaker": "human", "machine_groundtruth": "gpt3 (prompt davinvci)", "imageID": 129, "caption": "settle", "counterbalance": 0, "groundtruth": "AI", "phase": "TEST", "human_groundtruth": "", "real_gender": "AI", "guess_gender": "male"}}, "Trial_93": {"workerID": "A19ZWBQT8A3LIR", "workerData": {"country": "United States", "age": "31-35", "engagement": "5", "difficulty": "5", "mode": "live", "gender": "male", "education": "bachelor", "condition": 0, "native": "yes"}, "trialData": {"rt": 4206, "hit": "participant_49", "trial": 43, "response_speaker": "human", "machine_groundtruth": "gpt3 (prompt davinvci)", "imageID": 49, "caption": "financial", "counterbalance": 0, "groundtruth": "human", "phase": "TEST", "human_groundtruth": "", "real_gender": "female", "guess_gender": "female"}}, "Trial_94": {"workerID": "A19ZWBQT8A3LIR", "workerData": {"country": "United States", "age": "31-35", "engagement": "5", "difficulty": "5", "mode": "live", "gender": "male", "education": "bachelor", "condition": 0, "native": "yes"}, "trialData": {"rt": 4149, "hit": "participant_111", "trial": 44, "response_speaker": "AI", "machine_groundtruth": "gpt3 (prompt davinvci)", "imageID": 111, "caption": "ping", "counterbalance": 0, "groundtruth": "human", "phase": "TEST", "human_groundtruth": "", "real_gender": "male", "guess_gender": "male"}}, "Trial_95": {"workerID": "A19ZWBQT8A3LIR", "workerData": {"country": "United States", "age": "31-35", "engagement": "5", "difficulty": "5", "mode": "live", "gender": "male", "education": "bachelor", "condition": 0, "native": "yes"}, "trialData": {"rt": 5409, "hit": "participant_88", "trial": 45, "response_speaker": "AI", "machine_groundtruth": " gpt3 (embedding)", "imageID": 88, "caption": "curtain", "counterbalance": 0, "groundtruth": "AI", "phase": "TEST", "human_groundtruth": "", "real_gender": "AI", "guess_gender": "female"}}, "Trial_96": {"workerID": "A19ZWBQT8A3LIR", "workerData": {"country": "United States", "age": "31-35", "engagement": "5", "difficulty": "5", "mode": "live", "gender": "male", "education": "bachelor", "condition": 0, "native": "yes"}, "trialData": {"rt": 3802, "hit": "participant_52", "trial": 46, "response_speaker": "human", "machine_groundtruth": "gpt3 (prompt curie)", "imageID": 52, "caption": "negotiate", "counterbalance": 0, "groundtruth": "AI", "phase": "TEST", "human_groundtruth": "", "real_gender": "AI", "guess_gender": "male"}}, "Trial_97": {"workerID": "A19ZWBQT8A3LIR", "workerData": {"country": "United States", "age": "31-35", "engagement": "5", "difficulty": "5", "mode": "live", "gender": "male", "education": "bachelor", "condition": 0, "native": "yes"}, "trialData": {"rt": 5885, "hit": "participant_66", "trial": 47, "response_speaker": "AI", "machine_groundtruth": "gpt3 (prompt curie)", "imageID": 66, "caption": "battlefield", "counterbalance": 0, "groundtruth": "human", "phase": "TEST", "human_groundtruth": "", "real_gender": "female", "guess_gender": "male"}}, "Trial_98": {"workerID": "A19ZWBQT8A3LIR", "workerData": {"country": "United States", "age": "31-35", "engagement": "5", "difficulty": "5", "mode": "live", "gender": "male", "education": "bachelor", "condition": 0, "native": "yes"}, "trialData": {"rt": 7662, "hit": "participant_10", "trial": 48, "response_speaker": "AI", "machine_groundtruth": "word2vec", "imageID": 10, "caption": "flat", "counterbalance": 0, "groundtruth": "AI", "phase": "TEST", "human_groundtruth": "", "real_gender": "AI", "guess_gender": "male"}}, "Trial_99": {"workerID": "A19ZWBQT8A3LIR", "workerData": {"country": "United States", "age": "31-35", "engagement": "5", "difficulty": "5", "mode": "live", "gender": "male", "education": "bachelor", "condition": 0, "native": "yes"}, "trialData": {"rt": 5834, "hit": "participant_80", "trial": 49, "response_speaker": "human", "machine_groundtruth": "gpt2", "imageID": 80, "caption": "nursery", "counterbalance": 0, "groundtruth": "AI", "phase": "TEST", "human_groundtruth": "", "real_gender": "AI", "guess_gender": "male"}}, "Trial_100": {"workerID": "A19ZWBQT8A3LIR", "workerData": {"country": "United States", "age": "31-35", "engagement": "5", "difficulty": "5", "mode": "live", "gender": "male", "education": "bachelor", "condition": 0, "native": "yes"}, "trialData": {"rt": 4477, "hit": "participant_21", "trial": 50, "response_speaker": "human", "machine_groundtruth": "word2vec", "imageID": 21, "caption": "presidential", "counterbalance": 0, "groundtruth": "AI", "phase": "TEST", "human_groundtruth": "", "real_gender": "AI", "guess_gender": "female"}}, "Trial_101": {"workerID": "A1N7GHHBH8GMVZ", "workerData": {"country": "United States", "age": "31-35", "engagement": "7", "difficulty": "2", "mode": "live", "gender": "male", "education": "bachelor", "condition": 0, "native": "yes"}, "trialData": {"rt": 28020, "hit": "participant_146", "trial": 1, "response_speaker": "AI", "machine_groundtruth": "gpt2", "imageID": 146, "caption": "know", "counterbalance": 0, "groundtruth": "AI", "phase": "TEST", "human_groundtruth": "", "real_gender": "AI", "guess_gender": "female"}}, "Trial_102": {"workerID": "A1N7GHHBH8GMVZ", "workerData": {"country": "United States", "age": "31-35", "engagement": "7", "difficulty": "2", "mode": "live", "gender": "male", "education": "bachelor", "condition": 0, "native": "yes"}, "trialData": {"rt": 9836, "hit": "participant_72", "trial": 2, "response_speaker": "human", "machine_groundtruth": "gpt2", "imageID": 72, "caption": "cash", "counterbalance": 0, "groundtruth": "human", "phase": "TEST", "human_groundtruth": "", "real_gender": "female", "guess_gender": "female"}}, "Trial_103": {"workerID": "A1N7GHHBH8GMVZ", "workerData": {"country": "United States", "age": "31-35", "engagement": "7", "difficulty": "2", "mode": "live", "gender": "male", "education": "bachelor", "condition": 0, "native": "yes"}, "trialData": {"rt": 6457, "hit": "participant_66", "trial": 3, "response_speaker": "human", "machine_groundtruth": "gpt2", "imageID": 66, "caption": "battlefield", "counterbalance": 0, "groundtruth": "human", "phase": "TEST", "human_groundtruth": "", "real_gender": "male", "guess_gender": "male"}}, "Trial_104": {"workerID": "A1N7GHHBH8GMVZ", "workerData": {"country": "United States", "age": "31-35", "engagement": "7", "difficulty": "2", "mode": "live", "gender": "male", "education": "bachelor", "condition": 0, "native": "yes"}, "trialData": {"rt": 14628, "hit": "participant_116", "trial": 4, "response_speaker": "human", "machine_groundtruth": " gpt3 (embedding)", "imageID": 116, "caption": "kitten", "counterbalance": 0, "groundtruth": "AI", "phase": "TEST", "human_groundtruth": "", "real_gender": "AI", "guess_gender": "female"}}, "Trial_105": {"workerID": "A1N7GHHBH8GMVZ", "workerData": {"country": "United States", "age": "31-35", "engagement": "7", "difficulty": "2", "mode": "live", "gender": "male", "education": "bachelor", "condition": 0, "native": "yes"}, "trialData": {"rt": 7696, "hit": "participant_137", "trial": 5, "response_speaker": "human", "machine_groundtruth": " gpt3 (embedding)", "imageID": 137, "caption": "fred", "counterbalance": 0, "groundtruth": "human", "phase": "TEST", "human_groundtruth": "", "real_gender": "male", "guess_gender": "male"}}, "Trial_106": {"workerID": "A1N7GHHBH8GMVZ", "workerData": {"country": "United States", "age": "31-35", "engagement": "7", "difficulty": "2", "mode": "live", "gender": "male", "education": "bachelor", "condition": 0, "native": "yes"}, "trialData": {"rt": 13836, "hit": "participant_39", "trial": 6, "response_speaker": "AI", "machine_groundtruth": " gpt3 (embedding)", "imageID": 39, "caption": "revolutionary", "counterbalance": 0, "groundtruth": "human", "phase": "TEST", "human_groundtruth": "", "real_gender": "male", "guess_gender": "male"}}, "Trial_107": {"workerID": "A1N7GHHBH8GMVZ", "workerData": {"country": "United States", "age": "31-35", "engagement": "7", "difficulty": "2", "mode": "live", "gender": "male", "education": "bachelor", "condition": 0, "native": "yes"}, "trialData": {"rt": 11179, "hit": "participant_25", "trial": 7, "response_speaker": "human", "machine_groundtruth": " gpt3 (embedding)", "imageID": 25, "caption": "psychotic", "counterbalance": 0, "groundtruth": "human", "phase": "TEST", "human_groundtruth": "", "real_gender": "male", "guess_gender": "female"}}, "Trial_108": {"workerID": "A1N7GHHBH8GMVZ", "workerData": {"country": "United States", "age": "31-35", "engagement": "7", "difficulty": "2", "mode": "live", "gender": "male", "education": "bachelor", "condition": 0, "native": "yes"}, "trialData": {"rt": 7087, "hit": "participant_30", "trial": 8, "response_speaker": "AI", "machine_groundtruth": "gpt2", "imageID": 30, "caption": "ingenious", "counterbalance": 0, "groundtruth": "AI", "phase": "TEST", "human_groundtruth": "", "real_gender": "AI", "guess_gender": "male"}}, "Trial_109": {"workerID": "A1N7GHHBH8GMVZ", "workerData": {"country": "United States", "age": "31-35", "engagement": "7", "difficulty": "2", "mode": "live", "gender": "male", "education": "bachelor", "condition": 0, "native": "yes"}, "trialData": {"rt": 7549, "hit": "participant_113", "trial": 9, "response_speaker": "AI", "machine_groundtruth": "gpt2", "imageID": 113, "caption": "reduce", "counterbalance": 0, "groundtruth": "human", "phase": "TEST", "human_groundtruth": "", "real_gender": "male", "guess_gender": "male"}}, "Trial_110": {"workerID": "A1N7GHHBH8GMVZ", "workerData": {"country": "United States", "age": "31-35", "engagement": "7", "difficulty": "2", "mode": "live", "gender": "male", "education": "bachelor", "condition": 0, "native": "yes"}, "trialData": {"rt": 13343, "hit": "participant_110", "trial": 10, "response_speaker": "AI", "machine_groundtruth": "gpt3 (prompt davinvci)", "imageID": 110, "caption": "improve", "counterbalance": 0, "groundtruth": "AI", "phase": "TEST", "human_groundtruth": "", "real_gender": "AI", "guess_gender": "male"}}, "Trial_111": {"workerID": "A1N7GHHBH8GMVZ", "workerData": {"country": "United States", "age": "31-35", "engagement": "7", "difficulty": "2", "mode": "live", "gender": "male", "education": "bachelor", "condition": 0, "native": "yes"}, "trialData": {"rt": 13518, "hit": "participant_43", "trial": 11, "response_speaker": "human", "machine_groundtruth": "gpt2", "imageID": 43, "caption": "nationwide", "counterbalance": 0, "groundtruth": "AI", "phase": "TEST", "human_groundtruth": "", "real_gender": "AI", "guess_gender": "female"}}, "Trial_112": {"workerID": "A1N7GHHBH8GMVZ", "workerData": {"country": "United States", "age": "31-35", "engagement": "7", "difficulty": "2", "mode": "live", "gender": "male", "education": "bachelor", "condition": 0, "native": "yes"}, "trialData": {"rt": 8442, "hit": "participant_97", "trial": 12, "response_speaker": "AI", "machine_groundtruth": " gpt3 (embedding)", "imageID": 97, "caption": "entertain", "counterbalance": 0, "groundtruth": "AI", "phase": "TEST", "human_groundtruth": "", "real_gender": "AI", "guess_gender": "female"}}, "Trial_113": {"workerID": "A1N7GHHBH8GMVZ", "workerData": {"country": "United States", "age": "31-35", "engagement": "7", "difficulty": "2", "mode": "live", "gender": "male", "education": "bachelor", "condition": 0, "native": "yes"}, "trialData": {"rt": 7663, "hit": "participant_11", "trial": 13, "response_speaker": "AI", "machine_groundtruth": " gpt3 (embedding)", "imageID": 11, "caption": "technician", "counterbalance": 0, "groundtruth": "human", "phase": "TEST", "human_groundtruth": "", "real_gender": "male", "guess_gender": "female"}}, "Trial_114": {"workerID": "A1N7GHHBH8GMVZ", "workerData": {"country": "United States", "age": "31-35", "engagement": "7", "difficulty": "2", "mode": "live", "gender": "male", "education": "bachelor", "condition": 0, "native": "yes"}, "trialData": {"rt": 8741, "hit": "participant_131", "trial": 14, "response_speaker": "AI", "machine_groundtruth": "word2vec", "imageID": 131, "caption": "bloodshed", "counterbalance": 0, "groundtruth": "AI", "phase": "TEST", "human_groundtruth": "", "real_gender": "AI", "guess_gender": "female"}}, "Trial_115": {"workerID": "A1N7GHHBH8GMVZ", "workerData": {"country": "United States", "age": "31-35", "engagement": "7", "difficulty": "2", "mode": "live", "gender": "male", "education": "bachelor", "condition": 0, "native": "yes"}, "trialData": {"rt": 8572, "hit": "participant_69", "trial": 15, "response_speaker": "AI", "machine_groundtruth": "word2vec", "imageID": 69, "caption": "cancer", "counterbalance": 0, "groundtruth": "human", "phase": "TEST", "human_groundtruth": "", "real_gender": "female", "guess_gender": "male"}}, "Trial_116": {"workerID": "A1N7GHHBH8GMVZ", "workerData": {"country": "United States", "age": "31-35", "engagement": "7", "difficulty": "2", "mode": "live", "gender": "male", "education": "bachelor", "condition": 0, "native": "yes"}, "trialData": {"rt": 21129, "hit": "participant_96", "trial": 16, "response_speaker": "human", "machine_groundtruth": " gpt3 (embedding)", "imageID": 96, "caption": "teammate", "counterbalance": 0, "groundtruth": "AI", "phase": "TEST", "human_groundtruth": "", "real_gender": "AI", "guess_gender": "male"}}, "Trial_117": {"workerID": "A1N7GHHBH8GMVZ", "workerData": {"country": "United States", "age": "31-35", "engagement": "7", "difficulty": "2", "mode": "live", "gender": "male", "education": "bachelor", "condition": 0, "native": "yes"}, "trialData": {"rt": 4082, "hit": "participant_2", "trial": 17, "response_speaker": "human", "machine_groundtruth": "word2vec", "imageID": 2, "caption": "risky", "counterbalance": 0, "groundtruth": "AI", "phase": "TEST", "human_groundtruth": "", "real_gender": "AI", "guess_gender": "female"}}, "Trial_118": {"workerID": "A1N7GHHBH8GMVZ", "workerData": {"country": "United States", "age": "31-35", "engagement": "7", "difficulty": "2", "mode": "live", "gender": "male", "education": "bachelor", "condition": 0, "native": "yes"}, "trialData": {"rt": 6291, "hit": "participant_0", "trial": 18, "response_speaker": "AI", "machine_groundtruth": "word2vec", "imageID": 0, "caption": "memorable", "counterbalance": 0, "groundtruth": "human", "phase": "TEST", "human_groundtruth": "", "real_gender": "female", "guess_gender": "male"}}, "Trial_119": {"workerID": "A1N7GHHBH8GMVZ", "workerData": {"country": "United States", "age": "31-35", "engagement": "7", "difficulty": "2", "mode": "live", "gender": "male", "education": "bachelor", "condition": 0, "native": "yes"}, "trialData": {"rt": 5046, "hit": "participant_23", "trial": 19, "response_speaker": "human", "machine_groundtruth": "word2vec", "imageID": 23, "caption": "impressive", "counterbalance": 0, "groundtruth": "human", "phase": "TEST", "human_groundtruth": "", "real_gender": "male", "guess_gender": "female"}}, "Trial_120": {"workerID": "A1N7GHHBH8GMVZ", "workerData": {"country": "United States", "age": "31-35", "engagement": "7", "difficulty": "2", "mode": "live", "gender": "male", "education": "bachelor", "condition": 0, "native": "yes"}, "trialData": {"rt": 5015, "hit": "participant_111", "trial": 20, "response_speaker": "AI", "machine_groundtruth": "word2vec", "imageID": 111, "caption": "ping", "counterbalance": 0, "groundtruth": "human", "phase": "TEST", "human_groundtruth": "", "real_gender": "female", "guess_gender": "male"}}, "Trial_121": {"workerID": "A1N7GHHBH8GMVZ", "workerData": {"country": "United States", "age": "31-35", "engagement": "7", "difficulty": "2", "mode": "live", "gender": "male", "education": "bachelor", "condition": 0, "native": "yes"}, "trialData": {"rt": 7795, "hit": "participant_118", "trial": 21, "response_speaker": "human", "machine_groundtruth": "word2vec", "imageID": 118, "caption": "wing", "counterbalance": 0, "groundtruth": "human", "phase": "TEST", "human_groundtruth": "", "real_gender": "female", "guess_gender": "male"}}, "Trial_122": {"workerID": "A1N7GHHBH8GMVZ", "workerData": {"country": "United States", "age": "31-35", "engagement": "7", "difficulty": "2", "mode": "live", "gender": "male", "education": "bachelor", "condition": 0, "native": "yes"}, "trialData": {"rt": 9812, "hit": "participant_29", "trial": 22, "response_speaker": "human", "machine_groundtruth": "word2vec", "imageID": 29, "caption": "rebellious", "counterbalance": 0, "groundtruth": "AI", "phase": "TEST", "human_groundtruth": "", "real_gender": "AI", "guess_gender": "male"}}, "Trial_123": {"workerID": "A1N7GHHBH8GMVZ", "workerData": {"country": "United States", "age": "31-35", "engagement": "7", "difficulty": "2", "mode": "live", "gender": "male", "education": "bachelor", "condition": 0, "native": "yes"}, "trialData": {"rt": 11210, "hit": "participant_70", "trial": 23, "response_speaker": "AI", "machine_groundtruth": "word2vec", "imageID": 70, "caption": "heroin", "counterbalance": 0, "groundtruth": "human", "phase": "TEST", "human_groundtruth": "", "real_gender": "male", "guess_gender": "male"}}, "Trial_124": {"workerID": "A1N7GHHBH8GMVZ", "workerData": {"country": "United States", "age": "31-35", "engagement": "7", "difficulty": "2", "mode": "live", "gender": "male", "education": "bachelor", "condition": 0, "native": "yes"}, "trialData": {"rt": 9337, "hit": "participant_129", "trial": 24, "response_speaker": "human", "machine_groundtruth": "word2vec", "imageID": 129, "caption": "settle", "counterbalance": 0, "groundtruth": "human", "phase": "TEST", "human_groundtruth": "", "real_gender": "female", "guess_gender": "female"}}, "Trial_125": {"workerID": "A1N7GHHBH8GMVZ", "workerData": {"country": "United States", "age": "31-35", "engagement": "7", "difficulty": "2", "mode": "live", "gender": "male", "education": "bachelor", "condition": 0, "native": "yes"}, "trialData": {"rt": 6283, "hit": "participant_50", "trial": 25, "response_speaker": "human", "machine_groundtruth": "word2vec", "imageID": 50, "caption": "spark", "counterbalance": 0, "groundtruth": "human", "phase": "TEST", "human_groundtruth": "", "real_gender": "male", "guess_gender": "male"}}, "Trial_126": {"workerID": "A1N7GHHBH8GMVZ", "workerData": {"country": "United States", "age": "31-35", "engagement": "7", "difficulty": "2", "mode": "live", "gender": "male", "education": "bachelor", "condition": 0, "native": "yes"}, "trialData": {"rt": 7962, "hit": "participant_53", "trial": 26, "response_speaker": "AI", "machine_groundtruth": "gpt2", "imageID": 53, "caption": "stanford", "counterbalance": 0, "groundtruth": "AI", "phase": "TEST", "human_groundtruth": "", "real_gender": "AI", "guess_gender": "male"}}, "Trial_127": {"workerID": "A1N7GHHBH8GMVZ", "workerData": {"country": "United States", "age": "31-35", "engagement": "7", "difficulty": "2", "mode": "live", "gender": "male", "education": "bachelor", "condition": 0, "native": "yes"}, "trialData": {"rt": 12849, "hit": "participant_101", "trial": 27, "response_speaker": "AI", "machine_groundtruth": "gpt3 (prompt davinvci)", "imageID": 101, "caption": "expose", "counterbalance": 0, "groundtruth": "AI", "phase": "TEST", "human_groundtruth": "", "real_gender": "AI", "guess_gender": "male"}}, "Trial_128": {"workerID": "A1N7GHHBH8GMVZ", "workerData": {"country": "United States", "age": "31-35", "engagement": "7", "difficulty": "2", "mode": "live", "gender": "male", "education": "bachelor", "condition": 0, "native": "yes"}, "trialData": {"rt": 34060, "hit": "participant_37", "trial": 28, "response_speaker": "human", "machine_groundtruth": "gpt2", "imageID": 37, "caption": "intangible", "counterbalance": 0, "groundtruth": "AI", "phase": "TEST", "human_groundtruth": "", "real_gender": "AI", "guess_gender": "male"}}, "Trial_129": {"workerID": "A1N7GHHBH8GMVZ", "workerData": {"country": "United States", "age": "31-35", "engagement": "7", "difficulty": "2", "mode": "live", "gender": "male", "education": "bachelor", "condition": 0, "native": "yes"}, "trialData": {"rt": 9097, "hit": "participant_90", "trial": 29, "response_speaker": "human", "machine_groundtruth": "word2vec", "imageID": 90, "caption": "maid", "counterbalance": 0, "groundtruth": "AI", "phase": "TEST", "human_groundtruth": "", "real_gender": "AI", "guess_gender": "female"}}, "Trial_130": {"workerID": "A1N7GHHBH8GMVZ", "workerData": {"country": "United States", "age": "31-35", "engagement": "7", "difficulty": "2", "mode": "live", "gender": "male", "education": "bachelor", "condition": 0, "native": "yes"}, "trialData": {"rt": 12092, "hit": "participant_119", "trial": 30, "response_speaker": "human", "machine_groundtruth": "word2vec", "imageID": 119, "caption": "assume", "counterbalance": 0, "groundtruth": "human", "phase": "TEST", "human_groundtruth": "", "real_gender": "male", "guess_gender": "female"}}, "Trial_131": {"workerID": "A1N7GHHBH8GMVZ", "workerData": {"country": "United States", "age": "31-35", "engagement": "7", "difficulty": "2", "mode": "live", "gender": "male", "education": "bachelor", "condition": 0, "native": "yes"}, "trialData": {"rt": 9074, "hit": "participant_59", "trial": 31, "response_speaker": "human", "machine_groundtruth": "word2vec", "imageID": 59, "caption": "curry", "counterbalance": 0, "groundtruth": "AI", "phase": "TEST", "human_groundtruth": "", "real_gender": "AI", "guess_gender": "female"}}, "Trial_132": {"workerID": "A1N7GHHBH8GMVZ", "workerData": {"country": "United States", "age": "31-35", "engagement": "7", "difficulty": "2", "mode": "live", "gender": "male", "education": "bachelor", "condition": 0, "native": "yes"}, "trialData": {"rt": 9249, "hit": "participant_108", "trial": 32, "response_speaker": "AI", "machine_groundtruth": " gpt3 (embedding)", "imageID": 108, "caption": "apply", "counterbalance": 0, "groundtruth": "AI", "phase": "TEST", "human_groundtruth": "", "real_gender": "AI", "guess_gender": "male"}}, "Trial_133": {"workerID": "A1N7GHHBH8GMVZ", "workerData": {"country": "United States", "age": "31-35", "engagement": "7", "difficulty": "2", "mode": "live", "gender": "male", "education": "bachelor", "condition": 0, "native": "yes"}, "trialData": {"rt": 8451, "hit": "participant_57", "trial": 33, "response_speaker": "human", "machine_groundtruth": "gpt2", "imageID": 57, "caption": "wreck", "counterbalance": 0, "groundtruth": "AI", "phase": "TEST", "human_groundtruth": "", "real_gender": "AI", "guess_gender": "male"}}, "Trial_134": {"workerID": "A1N7GHHBH8GMVZ", "workerData": {"country": "United States", "age": "31-35", "engagement": "7", "difficulty": "2", "mode": "live", "gender": "male", "education": "bachelor", "condition": 0, "native": "yes"}, "trialData": {"rt": 57567, "hit": "participant_87", "trial": 34, "response_speaker": "human", "machine_groundtruth": "word2vec", "imageID": 87, "caption": "foot", "counterbalance": 0, "groundtruth": "AI", "phase": "TEST", "human_groundtruth": "", "real_gender": "AI", "guess_gender": "male"}}, "Trial_135": {"workerID": "A1N7GHHBH8GMVZ", "workerData": {"country": "United States", "age": "31-35", "engagement": "7", "difficulty": "2", "mode": "live", "gender": "male", "education": "bachelor", "condition": 0, "native": "yes"}, "trialData": {"rt": 19197, "hit": "participant_92", "trial": 35, "response_speaker": "AI", "machine_groundtruth": " gpt3 (embedding)", "imageID": 92, "caption": "constitute", "counterbalance": 0, "groundtruth": "AI", "phase": "TEST", "human_groundtruth": "", "real_gender": "AI", "guess_gender": "male"}}, "Trial_136": {"workerID": "A1N7GHHBH8GMVZ", "workerData": {"country": "United States", "age": "31-35", "engagement": "7", "difficulty": "2", "mode": "live", "gender": "male", "education": "bachelor", "condition": 0, "native": "yes"}, "trialData": {"rt": 9308, "hit": "participant_51", "trial": 36, "response_speaker": "AI", "machine_groundtruth": " gpt3 (embedding)", "imageID": 51, "caption": "freight", "counterbalance": 0, "groundtruth": "human", "phase": "TEST", "human_groundtruth": "", "real_gender": "female", "guess_gender": "male"}}, "Trial_137": {"workerID": "A1N7GHHBH8GMVZ", "workerData": {"country": "United States", "age": "31-35", "engagement": "7", "difficulty": "2", "mode": "live", "gender": "male", "education": "bachelor", "condition": 0, "native": "yes"}, "trialData": {"rt": 9797, "hit": "participant_44", "trial": 37, "response_speaker": "human", "machine_groundtruth": " gpt3 (embedding)", "imageID": 44, "caption": "synaptic", "counterbalance": 0, "groundtruth": "human", "phase": "TEST", "human_groundtruth": "", "real_gender": "female", "guess_gender": "female"}}, "Trial_138": {"workerID": "A1N7GHHBH8GMVZ", "workerData": {"country": "United States", "age": "31-35", "engagement": "7", "difficulty": "2", "mode": "live", "gender": "male", "education": "bachelor", "condition": 0, "native": "yes"}, "trialData": {"rt": 10986, "hit": "participant_106", "trial": 38, "response_speaker": "human", "machine_groundtruth": " gpt3 (embedding)", "imageID": 106, "caption": "kindle", "counterbalance": 0, "groundtruth": "human", "phase": "TEST", "human_groundtruth": "", "real_gender": "female", "guess_gender": "female"}}, "Trial_139": {"workerID": "A1N7GHHBH8GMVZ", "workerData": {"country": "United States", "age": "31-35", "engagement": "7", "difficulty": "2", "mode": "live", "gender": "male", "education": "bachelor", "condition": 0, "native": "yes"}, "trialData": {"rt": 8678, "hit": "participant_9", "trial": 39, "response_speaker": "human", "machine_groundtruth": " gpt3 (embedding)", "imageID": 9, "caption": "oriental", "counterbalance": 0, "groundtruth": "human", "phase": "TEST", "human_groundtruth": "", "real_gender": "female", "guess_gender": "male"}}, "Trial_140": {"workerID": "A1N7GHHBH8GMVZ", "workerData": {"country": "United States", "age": "31-35", "engagement": "7", "difficulty": "2", "mode": "live", "gender": "male", "education": "bachelor", "condition": 0, "native": "yes"}, "trialData": {"rt": 10180, "hit": "participant_14", "trial": 40, "response_speaker": "AI", "machine_groundtruth": " gpt3 (embedding)", "imageID": 14, "caption": "numerous", "counterbalance": 0, "groundtruth": "human", "phase": "TEST", "human_groundtruth": "", "real_gender": "female", "guess_gender": "female"}}, "Trial_141": {"workerID": "A1N7GHHBH8GMVZ", "workerData": {"country": "United States", "age": "31-35", "engagement": "7", "difficulty": "2", "mode": "live", "gender": "male", "education": "bachelor", "condition": 0, "native": "yes"}, "trialData": {"rt": 14768, "hit": "participant_114", "trial": 41, "response_speaker": "human", "machine_groundtruth": " gpt3 (embedding)", "imageID": 114, "caption": "infrared", "counterbalance": 0, "groundtruth": "human", "phase": "TEST", "human_groundtruth": "", "real_gender": "female", "guess_gender": "male"}}, "Trial_142": {"workerID": "A1N7GHHBH8GMVZ", "workerData": {"country": "United States", "age": "31-35", "engagement": "7", "difficulty": "2", "mode": "live", "gender": "male", "education": "bachelor", "condition": 0, "native": "yes"}, "trialData": {"rt": 10009, "hit": "participant_41", "trial": 42, "response_speaker": "AI", "machine_groundtruth": " gpt3 (embedding)", "imageID": 41, "caption": "schematic", "counterbalance": 0, "groundtruth": "human", "phase": "TEST", "human_groundtruth": "", "real_gender": "female", "guess_gender": "male"}}, "Trial_143": {"workerID": "A1N7GHHBH8GMVZ", "workerData": {"country": "United States", "age": "31-35", "engagement": "7", "difficulty": "2", "mode": "live", "gender": "male", "education": "bachelor", "condition": 0, "native": "yes"}, "trialData": {"rt": 8268, "hit": "participant_6", "trial": 43, "response_speaker": "human", "machine_groundtruth": "gpt2", "imageID": 6, "caption": "healthy", "counterbalance": 0, "groundtruth": "AI", "phase": "TEST", "human_groundtruth": "", "real_gender": "AI", "guess_gender": "female"}}, "Trial_144": {"workerID": "A1N7GHHBH8GMVZ", "workerData": {"country": "United States", "age": "31-35", "engagement": "7", "difficulty": "2", "mode": "live", "gender": "male", "education": "bachelor", "condition": 0, "native": "yes"}, "trialData": {"rt": 8303, "hit": "participant_19", "trial": 44, "response_speaker": "AI", "machine_groundtruth": "gpt2", "imageID": 19, "caption": "exclusive", "counterbalance": 0, "groundtruth": "human", "phase": "TEST", "human_groundtruth": "", "real_gender": "female", "guess_gender": "female"}}, "Trial_145": {"workerID": "A1N7GHHBH8GMVZ", "workerData": {"country": "United States", "age": "31-35", "engagement": "7", "difficulty": "2", "mode": "live", "gender": "male", "education": "bachelor", "condition": 0, "native": "yes"}, "trialData": {"rt": 24711, "hit": "participant_8", "trial": 45, "response_speaker": "AI", "machine_groundtruth": " gpt3 (embedding)", "imageID": 8, "caption": "rigid", "counterbalance": 0, "groundtruth": "AI", "phase": "TEST", "human_groundtruth": "", "real_gender": "AI", "guess_gender": "female"}}, "Trial_146": {"workerID": "A1N7GHHBH8GMVZ", "workerData": {"country": "United States", "age": "31-35", "engagement": "7", "difficulty": "2", "mode": "live", "gender": "male", "education": "bachelor", "condition": 0, "native": "yes"}, "trialData": {"rt": 9364, "hit": "participant_40", "trial": 46, "response_speaker": "human", "machine_groundtruth": "gpt2", "imageID": 40, "caption": "vocal", "counterbalance": 0, "groundtruth": "AI", "phase": "TEST", "human_groundtruth": "", "real_gender": "AI", "guess_gender": "female"}}, "Trial_147": {"workerID": "A1N7GHHBH8GMVZ", "workerData": {"country": "United States", "age": "31-35", "engagement": "7", "difficulty": "2", "mode": "live", "gender": "male", "education": "bachelor", "condition": 0, "native": "yes"}, "trialData": {"rt": 29285, "hit": "participant_105", "trial": 47, "response_speaker": "AI", "machine_groundtruth": "gpt2", "imageID": 105, "caption": "appear", "counterbalance": 0, "groundtruth": "human", "phase": "TEST", "human_groundtruth": "", "real_gender": "male", "guess_gender": "male"}}, "Trial_148": {"workerID": "A1N7GHHBH8GMVZ", "workerData": {"country": "United States", "age": "31-35", "engagement": "7", "difficulty": "2", "mode": "live", "gender": "male", "education": "bachelor", "condition": 0, "native": "yes"}, "trialData": {"rt": 30284, "hit": "participant_81", "trial": 48, "response_speaker": "human", "machine_groundtruth": " gpt3 (embedding)", "imageID": 81, "caption": "awhile", "counterbalance": 0, "groundtruth": "AI", "phase": "TEST", "human_groundtruth": "", "real_gender": "AI", "guess_gender": "female"}}, "Trial_149": {"workerID": "A1N7GHHBH8GMVZ", "workerData": {"country": "United States", "age": "31-35", "engagement": "7", "difficulty": "2", "mode": "live", "gender": "male", "education": "bachelor", "condition": 0, "native": "yes"}, "trialData": {"rt": 7836, "hit": "participant_63", "trial": 49, "response_speaker": "human", "machine_groundtruth": " gpt3 (embedding)", "imageID": 63, "caption": "material", "counterbalance": 0, "groundtruth": "AI", "phase": "TEST", "human_groundtruth": "", "real_gender": "AI", "guess_gender": "female"}}, "Trial_150": {"workerID": "A1N7GHHBH8GMVZ", "workerData": {"country": "United States", "age": "31-35", "engagement": "7", "difficulty": "2", "mode": "live", "gender": "male", "education": "bachelor", "condition": 0, "native": "yes"}, "trialData": {"rt": 12671, "hit": "participant_62", "trial": 50, "response_speaker": "human", "machine_groundtruth": "gpt2", "imageID": 62, "caption": "mainland", "counterbalance": 0, "groundtruth": "AI", "phase": "TEST", "human_groundtruth": "", "real_gender": "AI", "guess_gender": "male"}}, "Trial_151": {"workerID": "A252EOYQTHCKDC", "workerData": {"country": "Albania", "age": "26-30", "engagement": "8", "difficulty": "3", "mode": "live", "gender": "male", "education": "master", "condition": 0, "native": "yes"}, "trialData": {"rt": 9113, "hit": "participant_108", "trial": 1, "response_speaker": "human", "machine_groundtruth": "gpt3 (prompt curie)", "imageID": 108, "caption": "apply", "counterbalance": 0, "groundtruth": "AI", "phase": "TEST", "human_groundtruth": "", "real_gender": "AI", "guess_gender": "male"}}, "Trial_152": {"workerID": "A252EOYQTHCKDC", "workerData": {"country": "Albania", "age": "26-30", "engagement": "8", "difficulty": "3", "mode": "live", "gender": "male", "education": "master", "condition": 0, "native": "yes"}, "trialData": {"rt": 6027, "hit": "participant_43", "trial": 2, "response_speaker": "AI", "machine_groundtruth": "gpt3 (prompt curie)", "imageID": 43, "caption": "nationwide", "counterbalance": 0, "groundtruth": "human", "phase": "TEST", "human_groundtruth": "", "real_gender": "male", "guess_gender": "male"}}, "Trial_153": {"workerID": "A252EOYQTHCKDC", "workerData": {"country": "Albania", "age": "26-30", "engagement": "8", "difficulty": "3", "mode": "live", "gender": "male", "education": "master", "condition": 0, "native": "yes"}, "trialData": {"rt": 4981, "hit": "participant_102", "trial": 3, "response_speaker": "human", "machine_groundtruth": "gpt3 (prompt curie)", "imageID": 102, "caption": "impose", "counterbalance": 0, "groundtruth": "AI", "phase": "TEST", "human_groundtruth": "", "real_gender": "AI", "guess_gender": "male"}}, "Trial_154": {"workerID": "A252EOYQTHCKDC", "workerData": {"country": "Albania", "age": "26-30", "engagement": "8", "difficulty": "3", "mode": "live", "gender": "male", "education": "master", "condition": 0, "native": "yes"}, "trialData": {"rt": 4441, "hit": "participant_61", "trial": 4, "response_speaker": "human", "machine_groundtruth": "gpt3 (prompt davinvci)", "imageID": 61, "caption": "spouse", "counterbalance": 0, "groundtruth": "AI", "phase": "TEST", "human_groundtruth": "", "real_gender": "AI", "guess_gender": "male"}}, "Trial_155": {"workerID": "A252EOYQTHCKDC", "workerData": {"country": "Albania", "age": "26-30", "engagement": "8", "difficulty": "3", "mode": "live", "gender": "male", "education": "master", "condition": 0, "native": "yes"}, "trialData": {"rt": 6159, "hit": "participant_144", "trial": 5, "response_speaker": "human", "machine_groundtruth": "gpt3 (prompt davinvci)", "imageID": 144, "caption": "hatred", "counterbalance": 0, "groundtruth": "human", "phase": "TEST", "human_groundtruth": "", "real_gender": "female", "guess_gender": "male"}}, "Trial_156": {"workerID": "A252EOYQTHCKDC", "workerData": {"country": "Albania", "age": "26-30", "engagement": "8", "difficulty": "3", "mode": "live", "gender": "male", "education": "master", "condition": 0, "native": "yes"}, "trialData": {"rt": 6713, "hit": "participant_14", "trial": 6, "response_speaker": "AI", "machine_groundtruth": "gpt3 (prompt davinvci)", "imageID": 14, "caption": "numerous", "counterbalance": 0, "groundtruth": "human", "phase": "TEST", "human_groundtruth": "", "real_gender": "female", "guess_gender": "male"}}, "Trial_157": {"workerID": "A252EOYQTHCKDC", "workerData": {"country": "Albania", "age": "26-30", "engagement": "8", "difficulty": "3", "mode": "live", "gender": "male", "education": "master", "condition": 0, "native": "yes"}, "trialData": {"rt": 12343, "hit": "participant_99", "trial": 7, "response_speaker": "AI", "machine_groundtruth": "gpt3 (prompt curie)", "imageID": 99, "caption": "prototype", "counterbalance": 0, "groundtruth": "AI", "phase": "TEST", "human_groundtruth": "", "real_gender": "AI", "guess_gender": "male"}}, "Trial_158": {"workerID": "A252EOYQTHCKDC", "workerData": {"country": "Albania", "age": "26-30", "engagement": "8", "difficulty": "3", "mode": "live", "gender": "male", "education": "master", "condition": 0, "native": "yes"}, "trialData": {"rt": 6174, "hit": "participant_143", "trial": 8, "response_speaker": "human", "machine_groundtruth": "gpt3 (prompt curie)", "imageID": 143, "caption": "approve", "counterbalance": 0, "groundtruth": "human", "phase": "TEST", "human_groundtruth": "", "real_gender": "male", "guess_gender": "male"}}, "Trial_159": {"workerID": "A252EOYQTHCKDC", "workerData": {"country": "Albania", "age": "26-30", "engagement": "8", "difficulty": "3", "mode": "live", "gender": "male", "education": "master", "condition": 0, "native": "yes"}, "trialData": {"rt": 13407, "hit": "participant_121", "trial": 9, "response_speaker": "human", "machine_groundtruth": "gpt2", "imageID": 121, "caption": "aforementioned", "counterbalance": 0, "groundtruth": "AI", "phase": "TEST", "human_groundtruth": "", "real_gender": "AI", "guess_gender": "male"}}, "Trial_160": {"workerID": "A252EOYQTHCKDC", "workerData": {"country": "Albania", "age": "26-30", "engagement": "8", "difficulty": "3", "mode": "live", "gender": "male", "education": "master", "condition": 0, "native": "yes"}, "trialData": {"rt": 7494, "hit": "participant_25", "trial": 10, "response_speaker": "human", "machine_groundtruth": "gpt2", "imageID": 25, "caption": "psychotic", "counterbalance": 0, "groundtruth": "human", "phase": "TEST", "human_groundtruth": "", "real_gender": "male", "guess_gender": "male"}}, "Trial_161": {"workerID": "A252EOYQTHCKDC", "workerData": {"country": "Albania", "age": "26-30", "engagement": "8", "difficulty": "3", "mode": "live", "gender": "male", "education": "master", "condition": 0, "native": "yes"}, "trialData": {"rt": 4752, "hit": "participant_76", "trial": 11, "response_speaker": "AI", "machine_groundtruth": " gpt3 (embedding)", "imageID": 76, "caption": "clarity", "counterbalance": 0, "groundtruth": "AI", "phase": "TEST", "human_groundtruth": "", "real_gender": "AI", "guess_gender": "male"}}, "Trial_162": {"workerID": "A252EOYQTHCKDC", "workerData": {"country": "Albania", "age": "26-30", "engagement": "8", "difficulty": "3", "mode": "live", "gender": "male", "education": "master", "condition": 0, "native": "yes"}, "trialData": {"rt": 5022, "hit": "participant_67", "trial": 12, "response_speaker": "human", "machine_groundtruth": " gpt3 (embedding)", "imageID": 67, "caption": "dodge", "counterbalance": 0, "groundtruth": "human", "phase": "TEST", "human_groundtruth": "", "real_gender": "female", "guess_gender": "male"}}, "Trial_163": {"workerID": "A252EOYQTHCKDC", "workerData": {"country": "Albania", "age": "26-30", "engagement": "8", "difficulty": "3", "mode": "live", "gender": "male", "education": "master", "condition": 0, "native": "yes"}, "trialData": {"rt": 4816, "hit": "participant_74", "trial": 13, "response_speaker": "human", "machine_groundtruth": " gpt3 (embedding)", "imageID": 74, "caption": "nixon", "counterbalance": 0, "groundtruth": "human", "phase": "TEST", "human_groundtruth": "", "real_gender": "male", "guess_gender": "male"}}, "Trial_164": {"workerID": "A252EOYQTHCKDC", "workerData": {"country": "Albania", "age": "26-30", "engagement": "8", "difficulty": "3", "mode": "live", "gender": "male", "education": "master", "condition": 0, "native": "yes"}, "trialData": {"rt": 3423, "hit": "participant_65", "trial": 14, "response_speaker": "human", "machine_groundtruth": "gpt3 (prompt davinvci)", "imageID": 65, "caption": "zombie", "counterbalance": 0, "groundtruth": "AI", "phase": "TEST", "human_groundtruth": "", "real_gender": "AI", "guess_gender": "male"}}, "Trial_165": {"workerID": "A252EOYQTHCKDC", "workerData": {"country": "Albania", "age": "26-30", "engagement": "8", "difficulty": "3", "mode": "live", "gender": "male", "education": "master", "condition": 0, "native": "yes"}, "trialData": {"rt": 4299, "hit": "participant_3", "trial": 15, "response_speaker": "human", "machine_groundtruth": "gpt3 (prompt davinvci)", "imageID": 3, "caption": "grand", "counterbalance": 0, "groundtruth": "human", "phase": "TEST", "human_groundtruth": "", "real_gender": "female", "guess_gender": "male"}}, "Trial_166": {"workerID": "A252EOYQTHCKDC", "workerData": {"country": "Albania", "age": "26-30", "engagement": "8", "difficulty": "3", "mode": "live", "gender": "male", "education": "master", "condition": 0, "native": "yes"}, "trialData": {"rt": 4580, "hit": "participant_9", "trial": 16, "response_speaker": "human", "machine_groundtruth": "gpt3 (prompt davinvci)", "imageID": 9, "caption": "oriental", "counterbalance": 0, "groundtruth": "human", "phase": "TEST", "human_groundtruth": "", "real_gender": "male", "guess_gender": "male"}}, "Trial_167": {"workerID": "A252EOYQTHCKDC", "workerData": {"country": "Albania", "age": "26-30", "engagement": "8", "difficulty": "3", "mode": "live", "gender": "male", "education": "master", "condition": 0, "native": "yes"}, "trialData": {"rt": 4438, "hit": "participant_100", "trial": 17, "response_speaker": "human", "machine_groundtruth": "gpt3 (prompt davinvci)", "imageID": 100, "caption": "consider", "counterbalance": 0, "groundtruth": "human", "phase": "TEST", "human_groundtruth": "", "real_gender": "male", "guess_gender": "male"}}, "Trial_168": {"workerID": "A252EOYQTHCKDC", "workerData": {"country": "Albania", "age": "26-30", "engagement": "8", "difficulty": "3", "mode": "live", "gender": "male", "education": "master", "condition": 0, "native": "yes"}, "trialData": {"rt": 4591, "hit": "participant_17", "trial": 18, "response_speaker": "human", "machine_groundtruth": "gpt3 (prompt davinvci)", "imageID": 17, "caption": "fetish", "counterbalance": 0, "groundtruth": "human", "phase": "TEST", "human_groundtruth": "", "real_gender": "female", "guess_gender": "male"}}, "Trial_169": {"workerID": "A252EOYQTHCKDC", "workerData": {"country": "Albania", "age": "26-30", "engagement": "8", "difficulty": "3", "mode": "live", "gender": "male", "education": "master", "condition": 0, "native": "yes"}, "trialData": {"rt": 4831, "hit": "participant_69", "trial": 19, "response_speaker": "human", "machine_groundtruth": "gpt3 (prompt davinvci)", "imageID": 69, "caption": "cancer", "counterbalance": 0, "groundtruth": "human", "phase": "TEST", "human_groundtruth": "", "real_gender": "female", "guess_gender": "male"}}, "Trial_170": {"workerID": "A252EOYQTHCKDC", "workerData": {"country": "Albania", "age": "26-30", "engagement": "8", "difficulty": "3", "mode": "live", "gender": "male", "education": "master", "condition": 0, "native": "yes"}, "trialData": {"rt": 4398, "hit": "participant_106", "trial": 20, "response_speaker": "human", "machine_groundtruth": "gpt2", "imageID": 106, "caption": "kindle", "counterbalance": 0, "groundtruth": "AI", "phase": "TEST", "human_groundtruth": "", "real_gender": "AI", "guess_gender": "male"}}, "Trial_171": {"workerID": "A252EOYQTHCKDC", "workerData": {"country": "Albania", "age": "26-30", "engagement": "8", "difficulty": "3", "mode": "live", "gender": "male", "education": "master", "condition": 0, "native": "yes"}, "trialData": {"rt": 4424, "hit": "participant_147", "trial": 21, "response_speaker": "human", "machine_groundtruth": "word2vec", "imageID": 147, "caption": "make", "counterbalance": 0, "groundtruth": "AI", "phase": "TEST", "human_groundtruth": "", "real_gender": "AI", "guess_gender": "male"}}, "Trial_172": {"workerID": "A252EOYQTHCKDC", "workerData": {"country": "Albania", "age": "26-30", "engagement": "8", "difficulty": "3", "mode": "live", "gender": "male", "education": "master", "condition": 0, "native": "yes"}, "trialData": {"rt": 4184, "hit": "participant_93", "trial": 22, "response_speaker": "human", "machine_groundtruth": "word2vec", "imageID": 93, "caption": "royal", "counterbalance": 0, "groundtruth": "human", "phase": "TEST", "human_groundtruth": "", "real_gender": "female", "guess_gender": "male"}}, "Trial_173": {"workerID": "A252EOYQTHCKDC", "workerData": {"country": "Albania", "age": "26-30", "engagement": "8", "difficulty": "3", "mode": "live", "gender": "male", "education": "master", "condition": 0, "native": "yes"}, "trialData": {"rt": 5789, "hit": "participant_68", "trial": 23, "response_speaker": "human", "machine_groundtruth": "word2vec", "imageID": 68, "caption": "triangle", "counterbalance": 0, "groundtruth": "human", "phase": "TEST", "human_groundtruth": "", "real_gender": "male", "guess_gender": "male"}}, "Trial_174": {"workerID": "A252EOYQTHCKDC", "workerData": {"country": "Albania", "age": "26-30", "engagement": "8", "difficulty": "3", "mode": "live", "gender": "male", "education": "master", "condition": 0, "native": "yes"}, "trialData": {"rt": 5712, "hit": "participant_53", "trial": 24, "response_speaker": "human", "machine_groundtruth": "word2vec", "imageID": 53, "caption": "stanford", "counterbalance": 0, "groundtruth": "human", "phase": "TEST", "human_groundtruth": "", "real_gender": "female", "guess_gender": "male"}}, "Trial_175": {"workerID": "A252EOYQTHCKDC", "workerData": {"country": "Albania", "age": "26-30", "engagement": "8", "difficulty": "3", "mode": "live", "gender": "male", "education": "master", "condition": 0, "native": "yes"}, "trialData": {"rt": 4798, "hit": "participant_70", "trial": 25, "response_speaker": "human", "machine_groundtruth": "word2vec", "imageID": 70, "caption": "heroin", "counterbalance": 0, "groundtruth": "human", "phase": "TEST", "human_groundtruth": "", "real_gender": "male", "guess_gender": "male"}}, "Trial_176": {"workerID": "A252EOYQTHCKDC", "workerData": {"country": "Albania", "age": "26-30", "engagement": "8", "difficulty": "3", "mode": "live", "gender": "male", "education": "master", "condition": 0, "native": "yes"}, "trialData": {"rt": 6511, "hit": "participant_49", "trial": 26, "response_speaker": "human", "machine_groundtruth": " gpt3 (embedding)", "imageID": 49, "caption": "financial", "counterbalance": 0, "groundtruth": "AI", "phase": "TEST", "human_groundtruth": "", "real_gender": "AI", "guess_gender": "male"}}, "Trial_177": {"workerID": "A252EOYQTHCKDC", "workerData": {"country": "Albania", "age": "26-30", "engagement": "8", "difficulty": "3", "mode": "live", "gender": "male", "education": "master", "condition": 0, "native": "yes"}, "trialData": {"rt": 4151, "hit": "participant_2", "trial": 27, "response_speaker": "human", "machine_groundtruth": "word2vec", "imageID": 2, "caption": "risky", "counterbalance": 0, "groundtruth": "AI", "phase": "TEST", "human_groundtruth": "", "real_gender": "AI", "guess_gender": "male"}}, "Trial_178": {"workerID": "A252EOYQTHCKDC", "workerData": {"country": "Albania", "age": "26-30", "engagement": "8", "difficulty": "3", "mode": "live", "gender": "male", "education": "master", "condition": 0, "native": "yes"}, "trialData": {"rt": 4191, "hit": "participant_63", "trial": 28, "response_speaker": "human", "machine_groundtruth": "gpt3 (prompt davinvci)", "imageID": 63, "caption": "material", "counterbalance": 0, "groundtruth": "AI", "phase": "TEST", "human_groundtruth": "", "real_gender": "AI", "guess_gender": "male"}}, "Trial_179": {"workerID": "A252EOYQTHCKDC", "workerData": {"country": "Albania", "age": "26-30", "engagement": "8", "difficulty": "3", "mode": "live", "gender": "male", "education": "master", "condition": 0, "native": "yes"}, "trialData": {"rt": 5215, "hit": "participant_32", "trial": 29, "response_speaker": "human", "machine_groundtruth": "gpt3 (prompt davinvci)", "imageID": 32, "caption": "simplistic", "counterbalance": 0, "groundtruth": "human", "phase": "TEST", "human_groundtruth": "", "real_gender": "female", "guess_gender": "male"}}, "Trial_180": {"workerID": "A252EOYQTHCKDC", "workerData": {"country": "Albania", "age": "26-30", "engagement": "8", "difficulty": "3", "mode": "live", "gender": "male", "education": "master", "condition": 0, "native": "yes"}, "trialData": {"rt": 6871, "hit": "participant_120", "trial": 30, "response_speaker": "human", "machine_groundtruth": "gpt3 (prompt curie)", "imageID": 120, "caption": "identify", "counterbalance": 0, "groundtruth": "AI", "phase": "TEST", "human_groundtruth": "", "real_gender": "AI", "guess_gender": "male"}}, "Trial_181": {"workerID": "A252EOYQTHCKDC", "workerData": {"country": "Albania", "age": "26-30", "engagement": "8", "difficulty": "3", "mode": "live", "gender": "male", "education": "master", "condition": 0, "native": "yes"}, "trialData": {"rt": 4934, "hit": "participant_33", "trial": 31, "response_speaker": "human", "machine_groundtruth": "gpt3 (prompt davinvci)", "imageID": 33, "caption": "puppy", "counterbalance": 0, "groundtruth": "AI", "phase": "TEST", "human_groundtruth": "", "real_gender": "AI", "guess_gender": "male"}}, "Trial_182": {"workerID": "A252EOYQTHCKDC", "workerData": {"country": "Albania", "age": "26-30", "engagement": "8", "difficulty": "3", "mode": "live", "gender": "male", "education": "master", "condition": 0, "native": "yes"}, "trialData": {"rt": 4119, "hit": "participant_133", "trial": 32, "response_speaker": "human", "machine_groundtruth": " gpt3 (embedding)", "imageID": 133, "caption": "sled", "counterbalance": 0, "groundtruth": "AI", "phase": "TEST", "human_groundtruth": "", "real_gender": "AI", "guess_gender": "male"}}, "Trial_183": {"workerID": "A252EOYQTHCKDC", "workerData": {"country": "Albania", "age": "26-30", "engagement": "8", "difficulty": "3", "mode": "live", "gender": "male", "education": "master", "condition": 0, "native": "yes"}, "trialData": {"rt": 4871, "hit": "participant_85", "trial": 33, "response_speaker": "human", "machine_groundtruth": " gpt3 (embedding)", "imageID": 85, "caption": "distinguish", "counterbalance": 0, "groundtruth": "human", "phase": "TEST", "human_groundtruth": "", "real_gender": "male", "guess_gender": "male"}}, "Trial_184": {"workerID": "A252EOYQTHCKDC", "workerData": {"country": "Albania", "age": "26-30", "engagement": "8", "difficulty": "3", "mode": "live", "gender": "male", "education": "master", "condition": 0, "native": "yes"}, "trialData": {"rt": 5353, "hit": "participant_11", "trial": 34, "response_speaker": "human", "machine_groundtruth": "word2vec", "imageID": 11, "caption": "technician", "counterbalance": 0, "groundtruth": "AI", "phase": "TEST", "human_groundtruth": "", "real_gender": "AI", "guess_gender": "male"}}, "Trial_185": {"workerID": "A252EOYQTHCKDC", "workerData": {"country": "Albania", "age": "26-30", "engagement": "8", "difficulty": "3", "mode": "live", "gender": "male", "education": "master", "condition": 0, "native": "yes"}, "trialData": {"rt": 5413, "hit": "participant_44", "trial": 35, "response_speaker": "human", "machine_groundtruth": "word2vec", "imageID": 44, "caption": "synaptic", "counterbalance": 0, "groundtruth": "AI", "phase": "TEST", "human_groundtruth": "", "real_gender": "AI", "guess_gender": "male"}}, "Trial_186": {"workerID": "A252EOYQTHCKDC", "workerData": {"country": "Albania", "age": "26-30", "engagement": "8", "difficulty": "3", "mode": "live", "gender": "male", "education": "master", "condition": 0, "native": "yes"}, "trialData": {"rt": 3585, "hit": "participant_90", "trial": 36, "response_speaker": "human", "machine_groundtruth": "word2vec", "imageID": 90, "caption": "maid", "counterbalance": 0, "groundtruth": "human", "phase": "TEST", "human_groundtruth": "", "real_gender": "female", "guess_gender": "male"}}, "Trial_187": {"workerID": "A252EOYQTHCKDC", "workerData": {"country": "Albania", "age": "26-30", "engagement": "8", "difficulty": "3", "mode": "live", "gender": "male", "education": "master", "condition": 0, "native": "yes"}, "trialData": {"