{"Trial_Word_1": {"workerID": "A38DC3BG1ZCVZ2", "workerData": {"country": "United States", "age": "36-40", "engagement": "8", "difficulty": "9", "mode": "live", "gender": "female", "education": "bachelor", "ai-experience": "2", "condition": 0, "native": "yes"}, "trialData": {"rt": 2866, "Aclass": "Human", "hit": "130_a_0.html", "trial": 41, "page_name": "https://nhbturing1.psiturkdncl.online/static/responses_wordassoc/78_e_0.html", "phase": "TEST", "response_gender": "NA", "response_speaker": "human", "groundtruth": "machine", "machine_groundtruth": "GPT3(pr, Curie)"}}, "Trial_Word_2": {"workerID": "A38DC3BG1ZCVZ2", "workerData": {"country": "United States", "age": "36-40", "engagement": "8", "difficulty": "9", "mode": "live", "gender": "female", "education": "bachelor", "ai-experience": "2", "condition": 0, "native": "yes"}, "trialData": {"rt": 4179, "Aclass": "Human", "hit": "134_c_0.html", "trial": 42, "page_name": "https://nhbturing1.psiturkdncl.online/static/responses_wordassoc/3_a_0.html", "phase": "TEST", "response_gender": "NA", "response_speaker": "human", "groundtruth": "human", "machine_groundtruth": ""}}, "Trial_Word_3": {"workerID": "A38DC3BG1ZCVZ2", "workerData": {"country": "United States", "age": "36-40", "engagement": "8", "difficulty": "9", "mode": "live", "gender": "female", "education": "bachelor", "ai-experience": "2", "condition": 0, "native": "yes"}, "trialData": {"rt": 3275, "Aclass": "Machine", "hit": "74_a_4.html", "trial": 44, "page_name": "https://nhbturing1.psiturkdncl.online/static/responses_wordassoc/60_c_0.html", "phase": "TEST", "response_gender": "NA", "response_speaker": "machine", "groundtruth": "machine", "machine_groundtruth": "GPT2"}}, "Trial_Word_4": {"workerID": "A38DC3BG1ZCVZ2", "workerData": {"country": "United States", "age": "36-40", "engagement": "8", "difficulty": "9", "mode": "live", "gender": "female", "education": "bachelor", "ai-experience": "2", "condition": 0, "native": "yes"}, "trialData": {"rt": 2699, "Aclass": "Human", "hit": "145_a_1.html", "trial": 45, "page_name": "https://nhbturing1.psiturkdncl.online/static/responses_wordassoc/110_a_0.html", "phase": "TEST", "response_gender": "NA", "response_speaker": "human", "groundtruth": "human", "machine_groundtruth": ""}}, "Trial_Word_5": {"workerID": "A38DC3BG1ZCVZ2", "workerData": {"country": "United States", "age": "36-40", "engagement": "8", "difficulty": "9", "mode": "live", "gender": "female", "education": "bachelor", "ai-experience": "2", "condition": 0, "native": "yes"}, "trialData": {"rt": 4585, "Aclass": "Machine", "trial": 46, "page_name": "https://nhbturing1.psiturkdncl.online/static/responses_wordassoc/38_b_0.html", "phase": "TEST", "response_gender": "NA", "response_speaker": "machine", "groundtruth": "machine", "machine_groundtruth": "Word2Vec"}}, "Trial_Word_6": {"workerID": "A38DC3BG1ZCVZ2", "workerData": {"country": "United States", "age": "36-40", "engagement": "8", "difficulty": "9", "mode": "live", "gender": "female", "education": "bachelor", "ai-experience": "2", "condition": 0, "native": "yes"}, "trialData": {"rt": 2873, "Aclass": "Machine", "trial": 47, "page_name": "https://nhbturing1.psiturkdncl.online/static/responses_wordassoc/65_e_0.html", "phase": "TEST", "response_gender": "NA", "response_speaker": "machine", "groundtruth": "machine", "machine_groundtruth": "GPT3(pr, Curie)"}}, "Trial_Word_7": {"workerID": "A38DC3BG1ZCVZ2", "workerData": {"country": "United States", "age": "36-40", "engagement": "8", "difficulty": "9", "mode": "live", "gender": "female", "education": "bachelor", "ai-experience": "2", "condition": 0, "native": "yes"}, "trialData": {"rt": 5535, "Aclass": "Human", "trial": 48, "page_name": "https://nhbturing1.psiturkdncl.online/static/responses_wordassoc/4_c_0.html", "phase": "TEST", "response_gender": "NA", "response_speaker": "human", "groundtruth": "machine", "machine_groundtruth": "GPT2"}}, "Trial_Word_8": {"workerID": "A38DC3BG1ZCVZ2", "workerData": {"country": "United States", "age": "36-40", "engagement": "8", "difficulty": "9", "mode": "live", "gender": "female", "education": "bachelor", "ai-experience": "2", "condition": 0, "native": "yes"}, "trialData": {"rt": 3387, "Aclass": "Human", "trial": 49, "page_name": "https://nhbturing1.psiturkdncl.online/static/responses_wordassoc/69_f_0.html", "phase": "TEST", "response_gender": "NA", "response_speaker": "human", "groundtruth": "machine", "machine_groundtruth": "GPT3(pr, DaVinci)"}}, "Trial_Word_9": {"workerID": "A38DC3BG1ZCVZ2", "workerData": {"country": "United States", "age": "36-40", "engagement": "8", "difficulty": "9", "mode": "live", "gender": "female", "education": "bachelor", "ai-experience": "2", "condition": 0, "native": "yes"}, "trialData": {"rt": 2868, "Aclass": "Machine", "trial": 50, "page_name": "https://nhbturing1.psiturkdncl.online/static/responses_wordassoc/14_a_0.html", "phase": "TEST", "response_gender": "NA", "response_speaker": "machine", "groundtruth": "human", "machine_groundtruth": ""}}, "Trial_Word_10": {"workerID": "A38DC3BG1ZCVZ2", "workerData": {"country": "United States", "age": "36-40", "engagement": "8", "difficulty": "9", "mode": "live", "gender": "female", "education": "bachelor", "ai-experience": "2", "condition": 0, "native": "yes"}, "trialData": {"rt": 3130, "Aclass": "Human", "trial": 51, "page_name": "https://nhbturing1.psiturkdncl.online/static/responses_wordassoc/110_c_0.html", "phase": "TEST", "response_gender": "NA", "response_speaker": "human", "groundtruth": "machine", "machine_groundtruth": "GPT2"}}, "Trial_Word_11": {"workerID": "A38DC3BG1ZCVZ2", "workerData": {"country": "United States", "age": "36-40", "engagement": "8", "difficulty": "9", "mode": "live", "gender": "female", "education": "bachelor", "ai-experience": "2", "condition": 0, "native": "yes"}, "trialData": {"rt": 3054, "Aclass": "Human", "trial": 52, "page_name": "https://nhbturing1.psiturkdncl.online/static/responses_wordassoc/61_a_0.html", "phase": "TEST", "response_gender": "NA", "response_speaker": "human", "groundtruth": "human", "machine_groundtruth": ""}}, "Trial_Word_12": {"workerID": "A38DC3BG1ZCVZ2", "workerData": {"country": "United States", "age": "36-40", "engagement": "8", "difficulty": "9", "mode": "live", "gender": "female", "education": "bachelor", "ai-experience": "2", "condition": 0, "native": "yes"}, "trialData": {"rt": 2767, "Aclass": "Machine", "trial": 54, "page_name": "https://nhbturing1.psiturkdncl.online/static/responses_wordassoc/91_a_1.html", "phase": "TEST", "response_gender": "NA", "response_speaker": "machine", "groundtruth": "human", "machine_groundtruth": ""}}, "Trial_Word_13": {"workerID": "A38DC3BG1ZCVZ2", "workerData": {"country": "United States", "age": "36-40", "engagement": "8", "difficulty": "9", "mode": "live", "gender": "female", "education": "bachelor", "ai-experience": "2", "condition": 0, "native": "yes"}, "trialData": {"rt": 8762, "Aclass": "Machine", "trial": 55, "page_name": "https://nhbturing1.psiturkdncl.online/static/responses_wordassoc/137_e_0.html", "phase": "TEST", "response_gender": "NA", "response_speaker": "machine", "groundtruth": "machine", "machine_groundtruth": "GPT3(pr, Curie)"}}, "Trial_Word_14": {"workerID": "A38DC3BG1ZCVZ2", "workerData": {"country": "United States", "age": "36-40", "engagement": "8", "difficulty": "9", "mode": "live", "gender": "female", "education": "bachelor", "ai-experience": "2", "condition": 0, "native": "yes"}, "trialData": {"rt": 8531, "Aclass": "Human", "trial": 57, "page_name": "https://nhbturing1.psiturkdncl.online/static/responses_wordassoc/63_a_4.html", "phase": "TEST", "response_gender": "NA", "response_speaker": "human", "groundtruth": "human", "machine_groundtruth": ""}}, "Trial_Word_15": {"workerID": "A38DC3BG1ZCVZ2", "workerData": {"country": "United States", "age": "36-40", "engagement": "8", "difficulty": "9", "mode": "live", "gender": "female", "education": "bachelor", "ai-experience": "2", "condition": 0, "native": "yes"}, "trialData": {"rt": 2333, "Aclass": "Human", "trial": 58, "page_name": "https://nhbturing1.psiturkdncl.online/static/responses_wordassoc/25_a_4.html", "phase": "TEST", "response_gender": "NA", "response_speaker": "human", "groundtruth": "human", "machine_groundtruth": ""}}, "Trial_Word_16": {"workerID": "A38DC3BG1ZCVZ2", "workerData": {"country": "United States", "age": "36-40", "engagement": "8", "difficulty": "9", "mode": "live", "gender": "female", "education": "bachelor", "ai-experience": "2", "condition": 0, "native": "yes"}, "trialData": {"rt": 11383, "Aclass": "Machine", "trial": 59, "page_name": "https://nhbturing1.psiturkdncl.online/static/responses_wordassoc/76_a_3.html", "phase": "TEST", "response_gender": "NA", "response_speaker": "machine", "groundtruth": "human", "machine_groundtruth": ""}}, "Trial_Word_17": {"workerID": "A38DC3BG1ZCVZ2", "workerData": {"country": "United States", "age": "36-40", "engagement": "8", "difficulty": "9", "mode": "live", "gender": "female", "education": "bachelor", "ai-experience": "2", "condition": 0, "native": "yes"}, "trialData": {"rt": 3025, "Aclass": "Human", "trial": 60, "page_name": "https://nhbturing1.psiturkdncl.online/static/responses_wordassoc/40_d_0.html", "phase": "TEST", "response_gender": "NA", "response_speaker": "human", "groundtruth": "machine", "machine_groundtruth": "GPT3(Emb)"}}, "Trial_Word_18": {"workerID": "A38DC3BG1ZCVZ2", "workerData": {"country": "United States", "age": "36-40", "engagement": "8", "difficulty": "9", "mode": "live", "gender": "female", "education": "bachelor", "ai-experience": "2", "condition": 0, "native": "yes"}, "trialData": {"rt": 3066, "Aclass": "Human", "trial": 61, "page_name": "https://nhbturing1.psiturkdncl.online/static/responses_wordassoc/0_f_0.html", "phase": "TEST", "response_gender": "NA", "response_speaker": "human", "groundtruth": "machine", "machine_groundtruth": "GPT3(pr, DaVinci)"}}, "Trial_Word_19": {"workerID": "A38DC3BG1ZCVZ2", "workerData": {"country": "United States", "age": "36-40", "engagement": "8", "difficulty": "9", "mode": "live", "gender": "female", "education": "bachelor", "ai-experience": "2", "condition": 0, "native": "yes"}, "trialData": {"rt": 6772, "Aclass": "Human", "trial": 63, "page_name": "https://nhbturing1.psiturkdncl.online/static/responses_wordassoc/2_a_2.html", "phase": "TEST", "response_gender": "NA", "response_speaker": "human", "groundtruth": "human", "machine_groundtruth": ""}}, "Trial_Word_20": {"workerID": "A38DC3BG1ZCVZ2", "workerData": {"country": "United States", "age": "36-40", "engagement": "8", "difficulty": "9", "mode": "live", "gender": "female", "education": "bachelor", "ai-experience": "2", "condition": 0, "native": "yes"}, "trialData": {"rt": 9893, "Aclass": "Machine", "trial": 64, "page_name": "https://nhbturing1.psiturkdncl.online/static/responses_wordassoc/119_a_0.html", "phase": "TEST", "response_gender": "NA", "response_speaker": "machine", "groundtruth": "human", "machine_groundtruth": ""}}, "Trial_Word_21": {"workerID": "A38DC3BG1ZCVZ2", "workerData": {"country": "United States", "age": "36-40", "engagement": "8", "difficulty": "9", "mode": "live", "gender": "female", "education": "bachelor", "ai-experience": "2", "condition": 0, "native": "yes"}, "trialData": {"rt": 4038, "Aclass": "Human", "trial": 65, "page_name": "https://nhbturing1.psiturkdncl.online/static/responses_wordassoc/88_a_4.html", "phase": "TEST", "response_gender": "NA", "response_speaker": "human", "groundtruth": "human", "machine_groundtruth": ""}}, "Trial_Word_22": {"workerID": "A38DC3BG1ZCVZ2", "workerData": {"country": "United States", "age": "36-40", "engagement": "8", "difficulty": "9", "mode": "live", "gender": "female", "education": "bachelor", "ai-experience": "2", "condition": 0, "native": "yes"}, "trialData": {"rt": 3034, "Aclass": "Human", "trial": 66, "page_name": "https://nhbturing1.psiturkdncl.online/static/responses_wordassoc/128_e_0.html", "phase": "TEST", "response_gender": "NA", "response_speaker": "human", "groundtruth": "machine", "machine_groundtruth": "GPT3(pr, Curie)"}}, "Trial_Word_23": {"workerID": "A38DC3BG1ZCVZ2", "workerData": {"country": "United States", "age": "36-40", "engagement": "8", "difficulty": "9", "mode": "live", "gender": "female", "education": "bachelor", "ai-experience": "2", "condition": 0, "native": "yes"}, "trialData": {"rt": 4969, "Aclass": "Human", "trial": 67, "page_name": "https://nhbturing1.psiturkdncl.online/static/responses_wordassoc/122_a_0.html", "phase": "TEST", "response_gender": "NA", "response_speaker": "human", "groundtruth": "human", "machine_groundtruth": ""}}, "Trial_Word_24": {"workerID": "A38DC3BG1ZCVZ2", "workerData": {"country": "United States", "age": "36-40", "engagement": "8", "difficulty": "9", "mode": "live", "gender": "female", "education": "bachelor", "ai-experience": "2", "condition": 0, "native": "yes"}, "trialData": {"rt": 2417, "Aclass": "Machine", "trial": 68, "page_name": "https://nhbturing1.psiturkdncl.online/static/responses_wordassoc/31_f_0.html", "phase": "TEST", "response_gender": "NA", "response_speaker": "machine", "groundtruth": "machine", "machine_groundtruth": "GPT3(pr, DaVinci)"}}, "Trial_Word_25": {"workerID": "A38DC3BG1ZCVZ2", "workerData": {"country": "United States", "age": "36-40", "engagement": "8", "difficulty": "9", "mode": "live", "gender": "female", "education": "bachelor", "ai-experience": "2", "condition": 0, "native": "yes"}, "trialData": {"rt": 2355, "Aclass": "Human", "trial": 69, "page_name": "https://nhbturing1.psiturkdncl.online/static/responses_wordassoc/86_a_2.html", "phase": "TEST", "response_gender": "NA", "response_speaker": "human", "groundtruth": "human", "machine_groundtruth": ""}}, "Trial_Word_26": {"workerID": "A38DC3BG1ZCVZ2", "workerData": {"country": "United States", "age": "36-40", "engagement": "8", "difficulty": "9", "mode": "live", "gender": "female", "education": "bachelor", "ai-experience": "2", "condition": 0, "native": "yes"}, "trialData": {"rt": 5026, "Aclass": "Machine", "trial": 70, "page_name": "https://nhbturing1.psiturkdncl.online/static/responses_wordassoc/102_b_0.html", "phase": "TEST", "response_gender": "NA", "response_speaker": "machine", "groundtruth": "machine", "machine_groundtruth": "Word2Vec"}}, "Trial_Word_27": {"workerID": "A38DC3BG1ZCVZ2", "workerData": {"country": "United States", "age": "36-40", "engagement": "8", "difficulty": "9", "mode": "live", "gender": "female", "education": "bachelor", "ai-experience": "2", "condition": 0, "native": "yes"}, "trialData": {"rt": 4386, "Aclass": "Machine", "trial": 71, "page_name": "https://nhbturing1.psiturkdncl.online/static/responses_wordassoc/60_b_0.html", "phase": "TEST", "response_gender": "NA", "response_speaker": "machine", "groundtruth": "machine", "machine_groundtruth": "Word2Vec"}}, "Trial_Word_28": {"workerID": "A38DC3BG1ZCVZ2", "workerData": {"country": "United States", "age": "36-40", "engagement": "8", "difficulty": "9", "mode": "live", "gender": "female", "education": "bachelor", "ai-experience": "2", "condition": 0, "native": "yes"}, "trialData": {"rt": 3139, "Aclass": "Machine", "trial": 74, "page_name": "https://nhbturing1.psiturkdncl.online/static/responses_wordassoc/141_b_0.html", "phase": "TEST", "response_gender": "NA", "response_speaker": "machine", "groundtruth": "machine", "machine_groundtruth": "Word2Vec"}}, "Trial_Word_29": {"workerID": "A38DC3BG1ZCVZ2", "workerData": {"country": "United States", "age": "36-40", "engagement": "8", "difficulty": "9", "mode": "live", "gender": "female", "education": "bachelor", "ai-experience": "2", "condition": 0, "native": "yes"}, "trialData": {"rt": 2267, "Aclass": "Human", "trial": 76, "page_name": "https://nhbturing1.psiturkdncl.online/static/responses_wordassoc/104_a_0.html", "phase": "TEST", "response_gender": "NA", "response_speaker": "human", "groundtruth": "human", "machine_groundtruth": ""}}, "Trial_Word_30": {"workerID": "A38DC3BG1ZCVZ2", "workerData": {"country": "United States", "age": "36-40", "engagement": "8", "difficulty": "9", "mode": "live", "gender": "female", "education": "bachelor", "ai-experience": "2", "condition": 0, "native": "yes"}, "trialData": {"rt": 2975, "Aclass": "Human", "trial": 77, "page_name": "https://nhbturing1.psiturkdncl.online/static/responses_wordassoc/116_a_2.html", "phase": "TEST", "response_gender": "NA", "response_speaker": "human", "groundtruth": "human", "machine_groundtruth": ""}}, "Trial_Word_31": {"workerID": "A38DC3BG1ZCVZ2", "workerData": {"country": "United States", "age": "36-40", "engagement": "8", "difficulty": "9", "mode": "live", "gender": "female", "education": "bachelor", "ai-experience": "2", "condition": 0, "native": "yes"}, "trialData": {"rt": 2308, "Aclass": "Human", "trial": 79, "page_name": "https://nhbturing1.psiturkdncl.online/static/responses_wordassoc/25_d_0.html", "phase": "TEST", "response_gender": "NA", "response_speaker": "human", "groundtruth": "machine", "machine_groundtruth": "GPT3(Emb)"}}, "Trial_Word_32": {"workerID": "A38DC3BG1ZCVZ2", "workerData": {"country": "United States", "age": "36-40", "engagement": "8", "difficulty": "9", "mode": "live", "gender": "female", "education": "bachelor", "ai-experience": "2", "condition": 0, "native": "yes"}, "trialData": {"rt": 4613, "Aclass": "Human", "trial": 80, "page_name": "https://nhbturing1.psiturkdncl.online/static/responses_wordassoc/41_d_0.html", "phase": "TEST", "response_gender": "NA", "response_speaker": "human", "groundtruth": "machine", "machine_groundtruth": "GPT3(Emb)"}}, "Trial_Word_33": {"workerID": "A38DC3BG1ZCVZ2", "workerData": {"country": "United States", "age": "36-40", "engagement": "8", "difficulty": "9", "mode": "live", "gender": "female", "education": "bachelor", "ai-experience": "2", "condition": 0, "native": "yes"}, "trialData": {"rt": 5390, "Aclass": "Human", "trial": 82, "page_name": "https://nhbturing1.psiturkdncl.online/static/responses_wordassoc/130_a_0.html", "phase": "TEST", "response_gender": "NA", "response_speaker": "human", "groundtruth": "human", "machine_groundtruth": ""}}, "Trial_Word_34": {"workerID": "A38DC3BG1ZCVZ2", "workerData": {"country": "United States", "age": "36-40", "engagement": "8", "difficulty": "9", "mode": "live", "gender": "female", "education": "bachelor", "ai-experience": "2", "condition": 0, "native": "yes"}, "trialData": {"rt": 3193, "Aclass": "Machine", "trial": 83, "page_name": "https://nhbturing1.psiturkdncl.online/static/responses_wordassoc/74_f_0.html", "phase": "TEST", "response_gender": "NA", "response_speaker": "machine", "groundtruth": "machine", "machine_groundtruth": "GPT3(pr, DaVinci)"}}, "Trial_Word_35": {"workerID": "A38DC3BG1ZCVZ2", "workerData": {"country": "United States", "age": "36-40", "engagement": "8", "difficulty": "9", "mode": "live", "gender": "female", "education": "bachelor", "ai-experience": "2", "condition": 0, "native": "yes"}, "trialData": {"rt": 3627, "Aclass": "Machine", "trial": 84, "page_name": "https://nhbturing1.psiturkdncl.online/static/responses_wordassoc/134_c_0.html", "phase": "TEST", "response_gender": "NA", "response_speaker": "machine", "groundtruth": "machine", "machine_groundtruth": "GPT2"}}, "Trial_Word_36": {"workerID": "A38DC3BG1ZCVZ2", "workerData": {"country": "United States", "age": "36-40", "engagement": "8", "difficulty": "9", "mode": "live", "gender": "female", "education": "bachelor", "ai-experience": "2", "condition": 0, "native": "yes"}, "trialData": {"rt": 4842, "Aclass": "Human", "trial": 85, "page_name": "https://nhbturing1.psiturkdncl.online/static/responses_wordassoc/72_d_0.html", "phase": "TEST", "response_gender": "NA", "response_speaker": "human", "groundtruth": "machine", "machine_groundtruth": "GPT3(Emb)"}}, "Trial_Word_37": {"workerID": "A38DC3BG1ZCVZ2", "workerData": {"country": "United States", "age": "36-40", "engagement": "8", "difficulty": "9", "mode": "live", "gender": "female", "education": "bachelor", "ai-experience": "2", "condition": 0, "native": "yes"}, "trialData": {"rt": 3670, "Aclass": "Human", "trial": 87, "page_name": "https://nhbturing1.psiturkdncl.online/static/responses_wordassoc/18_a_0.html", "phase": "TEST", "response_gender": "NA", "response_speaker": "human", "groundtruth": "human", "machine_groundtruth": ""}}, "Trial_Word_38": {"workerID": "A38DC3BG1ZCVZ2", "workerData": {"country": "United States", "age": "36-40", "engagement": "8", "difficulty": "9", "mode": "live", "gender": "female", "education": "bachelor", "ai-experience": "2", "condition": 0, "native": "yes"}, "trialData": {"rt": 3969, "Aclass": "Machine", "trial": 88, "page_name": "https://nhbturing1.psiturkdncl.online/static/responses_wordassoc/74_a_4.html", "phase": "TEST", "response_gender": "NA", "response_speaker": "machine", "groundtruth": "human", "machine_groundtruth": ""}}, "Trial_Word_39": {"workerID": "A38DC3BG1ZCVZ2", "workerData": {"country": "United States", "age": "36-40", "engagement": "8", "difficulty": "9", "mode": "live", "gender": "female", "education": "bachelor", "ai-experience": "2", "condition": 0, "native": "yes"}, "trialData": {"rt": 2745, "Aclass": "Machine", "trial": 89, "page_name": "https://nhbturing1.psiturkdncl.online/static/responses_wordassoc/38_a_4.html", "phase": "TEST", "response_gender": "NA", "response_speaker": "machine", "groundtruth": "human", "machine_groundtruth": ""}}, "Trial_Word_40": {"workerID": "A38DC3BG1ZCVZ2", "workerData": {"country": "United States", "age": "36-40", "engagement": "8", "difficulty": "9", "mode": "live", "gender": "female", "education": "bachelor", "ai-experience": "2", "condition": 0, "native": "yes"}, "trialData": {"rt": 2227, "Aclass": "Human", "trial": 90, "page_name": "https://nhbturing1.psiturkdncl.online/static/responses_wordassoc/145_a_1.html", "phase": "TEST", "response_gender": "NA", "response_speaker": "human", "groundtruth": "human", "machine_groundtruth": ""}}, "Trial_Word_41": {"workerID": "A3UBB1LJKDQGZP", "workerData": {"country": "United States", "age": "41-45", "engagement": "10", "difficulty": "3", "mode": "live", "gender": "female", "education": "bachelor", "ai-experience": "2", "condition": 0, "native": "yes"}, "trialData": {"rt": 4534, "Aclass": "Machine", "hit": "75_b_0.html", "trial": 41, "page_name": "https://nhbturing1.psiturkdncl.online/static/responses_wordassoc/136_a_1.html", "phase": "TEST", "response_gender": "NA", "response_speaker": "machine", "groundtruth": "human", "machine_groundtruth": ""}}, "Trial_Word_42": {"workerID": "A3UBB1LJKDQGZP", "workerData": {"country": "United States", "age": "41-45", "engagement": "10", "difficulty": "3", "mode": "live", "gender": "female", "education": "bachelor", "ai-experience": "2", "condition": 0, "native": "yes"}, "trialData": {"rt": 3152, "Aclass": "Human", "hit": "104_g_0.html", "trial": 42, "page_name": "https://nhbturing1.psiturkdncl.online/static/responses_wordassoc/75_d_0.html", "phase": "TEST", "response_gender": "NA", "response_speaker": "human", "groundtruth": "machine", "machine_groundtruth": "GPT3(Emb)"}}, "Trial_Word_43": {"workerID": "A3UBB1LJKDQGZP", "workerData": {"country": "United States", "age": "41-45", "engagement": "10", "difficulty": "3", "mode": "live", "gender": "female", "education": "bachelor", "ai-experience": "2", "condition": 0, "native": "yes"}, "trialData": {"rt": 5533, "Aclass": "Human", "hit": "104_e_0.html", "trial": 43, "page_name": "https://nhbturing1.psiturkdncl.online/static/responses_wordassoc/76_a_4.html", "phase": "TEST", "response_gender": "NA", "response_speaker": "human", "groundtruth": "human", "machine_groundtruth": ""}}, "Trial_Word_44": {"workerID": "A3UBB1LJKDQGZP", "workerData": {"country": "United States", "age": "41-45", "engagement": "10", "difficulty": "3", "mode": "live", "gender": "female", "education": "bachelor", "ai-experience": "2", "condition": 0, "native": "yes"}, "trialData": {"rt": 3319, "Aclass": "Human", "hit": "85_a_3.html", "trial": 44, "page_name": "https://nhbturing1.psiturkdncl.online/static/responses_wordassoc/91_a_1.html", "phase": "TEST", "response_gender": "NA", "response_speaker": "human", "groundtruth": "human", "machine_groundtruth": ""}}, "Trial_Word_45": {"workerID": "A3UBB1LJKDQGZP", "workerData": {"country": "United States", "age": "41-45", "engagement": "10", "difficulty": "3", "mode": "live", "gender": "female", "education": "bachelor", "ai-experience": "2", "condition": 0, "native": "yes"}, "trialData": {"rt": 3141, "Aclass": "Machine", "trial": 46, "page_name": "https://nhbturing1.psiturkdncl.online/static/responses_wordassoc/61_a_3.html", "phase": "TEST", "response_gender": "NA", "response_speaker": "machine", "groundtruth": "human", "machine_groundtruth": ""}}, "Trial_Word_46": {"workerID": "A3UBB1LJKDQGZP", "workerData": {"country": "United States", "age": "41-45", "engagement": "10", "difficulty": "3", "mode": "live", "gender": "female", "education": "bachelor", "ai-experience": "2", "condition": 0, "native": "yes"}, "trialData": {"rt": 2967, "Aclass": "Human", "trial": 48, "page_name": "https://nhbturing1.psiturkdncl.online/static/responses_wordassoc/60_b_0.html", "phase": "TEST", "response_gender": "NA", "response_speaker": "human", "groundtruth": "machine", "machine_groundtruth": "Word2Vec"}}, "Trial_Word_47": {"workerID": "A3UBB1LJKDQGZP", "workerData": {"country": "United States", "age": "41-45", "engagement": "10", "difficulty": "3", "mode": "live", "gender": "female", "education": "bachelor", "ai-experience": "2", "condition": 0, "native": "yes"}, "trialData": {"rt": 4636, "Aclass": "Machine", "trial": 49, "page_name": "https://nhbturing1.psiturkdncl.online/static/responses_wordassoc/82_c_0.html", "phase": "TEST", "response_gender": "NA", "response_speaker": "machine", "groundtruth": "machine", "machine_groundtruth": "GPT2"}}, "Trial_Word_48": {"workerID": "A3UBB1LJKDQGZP", "workerData": {"country": "United States", "age": "41-45", "engagement": "10", "difficulty": "3", "mode": "live", "gender": "female", "education": "bachelor", "ai-experience": "2", "condition": 0, "native": "yes"}, "trialData": {"rt": 3377, "Aclass": "Machine", "trial": 50, "page_name": "https://nhbturing1.psiturkdncl.online/static/responses_wordassoc/40_b_0.html", "phase": "TEST", "response_gender": "NA", "response_speaker": "machine", "groundtruth": "machine", "machine_groundtruth": "Word2Vec"}}, "Trial_Word_49": {"workerID": "A3UBB1LJKDQGZP", "workerData": {"country": "United States", "age": "41-45", "engagement": "10", "difficulty": "3", "mode": "live", "gender": "female", "education": "bachelor", "ai-experience": "2", "condition": 0, "native": "yes"}, "trialData": {"rt": 3907, "Aclass": "Human", "trial": 51, "page_name": "https://nhbturing1.psiturkdncl.online/static/responses_wordassoc/41_f_0.html", "phase": "TEST", "response_gender": "NA", "response_speaker": "human", "groundtruth": "machine", "machine_groundtruth": "GPT3(pr, DaVinci)"}}, "Trial_Word_50": {"workerID": "A3UBB1LJKDQGZP", "workerData": {"country": "United States", "age": "41-45", "engagement": "10", "difficulty": "3", "mode": "live", "gender": "female", "education": "bachelor", "ai-experience": "2", "condition": 0, "native": "yes"}, "trialData": {"rt": 2701, "Aclass": "Human", "trial": 52, "page_name": "https://nhbturing1.psiturkdncl.online/static/responses_wordassoc/78_a_1.html", "phase": "TEST", "response_gender": "NA", "response_speaker": "human", "groundtruth": "human", "machine_groundtruth": ""}}, "Trial_Word_51": {"workerID": "A3UBB1LJKDQGZP", "workerData": {"country": "United States", "age": "41-45", "engagement": "10", "difficulty": "3", "mode": "live", "gender": "female", "education": "bachelor", "ai-experience": "2", "condition": 0, "native": "yes"}, "trialData": {"rt": 2903, "Aclass": "Machine", "trial": 53, "page_name": "https://nhbturing1.psiturkdncl.online/static/responses_wordassoc/32_a_1.html", "phase": "TEST", "response_gender": "NA", "response_speaker": "machine", "groundtruth": "human", "machine_groundtruth": ""}}, "Trial_Word_52": {"workerID": "A3UBB1LJKDQGZP", "workerData": {"country": "United States", "age": "41-45", "engagement": "10", "difficulty": "3", "mode": "live", "gender": "female", "education": "bachelor", "ai-experience": "2", "condition": 0, "native": "yes"}, "trialData": {"rt": 3272, "Aclass": "Human", "trial": 54, "page_name": "https://nhbturing1.psiturkdncl.online/static/responses_wordassoc/130_a_4.html", "phase": "TEST", "response_gender": "NA", "response_speaker": "human", "groundtruth": "human", "machine_groundtruth": ""}}, "Trial_Word_53": {"workerID": "A3UBB1LJKDQGZP", "workerData": {"country": "United States", "age": "41-45", "engagement": "10", "difficulty": "3", "mode": "live", "gender": "female", "education": "bachelor", "ai-experience": "2", "condition": 0, "native": "yes"}, "trialData": {"rt": 2910, "Aclass": "Human", "trial": 55, "page_name": "https://nhbturing1.psiturkdncl.online/static/responses_wordassoc/72_a_2.html", "phase": "TEST", "response_gender": "NA", "response_speaker": "human", "groundtruth": "human", "machine_groundtruth": ""}}, "Trial_Word_54": {"workerID": "A3UBB1LJKDQGZP", "workerData": {"country": "United States", "age": "41-45", "engagement": "10", "difficulty": "3", "mode": "live", "gender": "female", "education": "bachelor", "ai-experience": "2", "condition": 0, "native": "yes"}, "trialData": {"rt": 3560, "Aclass": "Human", "trial": 57, "page_name": "https://nhbturing1.psiturkdncl.online/static/responses_wordassoc/116_a_4.html", "phase": "TEST", "response_gender": "NA", "response_speaker": "human", "groundtruth": "human", "machine_groundtruth": ""}}, "Trial_Word_55": {"workerID": "A3UBB1LJKDQGZP", "workerData": {"country": "United States", "age": "41-45", "engagement": "10", "difficulty": "3", "mode": "live", "gender": "female", "education": "bachelor", "ai-experience": "2", "condition": 0, "native": "yes"}, "trialData": {"rt": 3369, "Aclass": "Machine", "trial": 61, "page_name": "https://nhbturing1.psiturkdncl.online/static/responses_wordassoc/145_a_0.html", "phase": "TEST", "response_gender": "NA", "response_speaker": "machine", "groundtruth": "human", "machine_groundtruth": ""}}, "Trial_Word_56": {"workerID": "A3UBB1LJKDQGZP", "workerData": {"country": "United States", "age": "41-45", "engagement": "10", "difficulty": "3", "mode": "live", "gender": "female", "education": "bachelor", "ai-experience": "2", "condition": 0, "native": "yes"}, "trialData": {"rt": 4547, "Aclass": "Human", "trial": 62, "page_name": "https://nhbturing1.psiturkdncl.online/static/responses_wordassoc/30_a_0.html", "phase": "TEST", "response_gender": "NA", "response_speaker": "human", "groundtruth": "human", "machine_groundtruth": ""}}, "Trial_Word_57": {"workerID": "A3UBB1LJKDQGZP", "workerData": {"country": "United States", "age": "41-45", "engagement": "10", "difficulty": "3", "mode": "live", "gender": "female", "education": "bachelor", "ai-experience": "2", "condition": 0, "native": "yes"}, "trialData": {"rt": 3583, "Aclass": "Human", "trial": 64, "page_name": "https://nhbturing1.psiturkdncl.online/static/responses_wordassoc/96_f_0.html", "phase": "TEST", "response_gender": "NA", "response_speaker": "human", "groundtruth": "machine", "machine_groundtruth": "GPT3(pr, DaVinci)"}}, "Trial_Word_58": {"workerID": "A3UBB1LJKDQGZP", "workerData": {"country": "United States", "age": "41-45", "engagement": "10", "difficulty": "3", "mode": "live", "gender": "female", "education": "bachelor", "ai-experience": "2", "condition": 0, "native": "yes"}, "trialData": {"rt": 3094, "Aclass": "Machine", "trial": 65, "page_name": "https://nhbturing1.psiturkdncl.online/static/responses_wordassoc/16_a_3.html", "phase": "TEST", "response_gender": "NA", "response_speaker": "machine", "groundtruth": "human", "machine_groundtruth": ""}}, "Trial_Word_59": {"workerID": "A3UBB1LJKDQGZP", "workerData": {"country": "United States", "age": "41-45", "engagement": "10", "difficulty": "3", "mode": "live", "gender": "female", "education": "bachelor", "ai-experience": "2", "condition": 0, "native": "yes"}, "trialData": {"rt": 3015, "Aclass": "Human", "trial": 66, "page_name": "https://nhbturing1.psiturkdncl.online/static/responses_wordassoc/49_a_0.html", "phase": "TEST", "response_gender": "NA", "response_speaker": "human", "groundtruth": "human", "machine_groundtruth": ""}}, "Trial_Word_60": {"workerID": "A3UBB1LJKDQGZP", "workerData": {"country": "United States", "age": "41-45", "engagement": "10", "difficulty": "3", "mode": "live", "gender": "female", "education": "bachelor", "ai-experience": "2", "condition": 0, "native": "yes"}, "trialData": {"rt": 2860, "Aclass": "Machine", "trial": 67, "page_name": "https://nhbturing1.psiturkdncl.online/static/responses_wordassoc/34_a_0.html", "phase": "TEST", "response_gender": "NA", "response_speaker": "machine", "groundtruth": "human", "machine_groundtruth": ""}}, "Trial_Word_61": {"workerID": "A3UBB1LJKDQGZP", "workerData": {"country": "United States", "age": "41-45", "engagement": "10", "difficulty": "3", "mode": "live", "gender": "female", "education": "bachelor", "ai-experience": "2", "condition": 0, "native": "yes"}, "trialData": {"rt": 2621, "Aclass": "Human", "trial": 68, "page_name": "https://nhbturing1.psiturkdncl.online/static/responses_wordassoc/42_c_0.html", "phase": "TEST", "response_gender": "NA", "response_speaker": "human", "groundtruth": "machine", "machine_groundtruth": "GPT2"}}, "Trial_Word_62": {"workerID": "A3UBB1LJKDQGZP", "workerData": {"country": "United States", "age": "41-45", "engagement": "10", "difficulty": "3", "mode": "live", "gender": "female", "education": "bachelor", "ai-experience": "2", "condition": 0, "native": "yes"}, "trialData": {"rt": 4295, "Aclass": "Machine", "trial": 69, "page_name": "https://nhbturing1.psiturkdncl.online/static/responses_wordassoc/64_c_0.html", "phase": "TEST", "response_gender": "NA", "response_speaker": "machine", "groundtruth": "machine", "machine_groundtruth": "GPT2"}}, "Trial_Word_63": {"workerID": "A3UBB1LJKDQGZP", "workerData": {"country": "United States", "age": "41-45", "engagement": "10", "difficulty": "3", "mode": "live", "gender": "female", "education": "bachelor", "ai-experience": "2", "condition": 0, "native": "yes"}, "trialData": {"rt": 3186, "Aclass": "Machine", "trial": 70, "page_name": "https://nhbturing1.psiturkdncl.online/static/responses_wordassoc/85_b_0.html", "phase": "TEST", "response_gender": "NA", "response_speaker": "machine", "groundtruth": "machine", "machine_groundtruth": "Word2Vec"}}, "Trial_Word_64": {"workerID": "A3UBB1LJKDQGZP", "workerData": {"country": "United States", "age": "41-45", "engagement": "10", "difficulty": "3", "mode": "live", "gender": "female", "education": "bachelor", "ai-experience": "2", "condition": 0, "native": "yes"}, "trialData": {"rt": 2612, "Aclass": "Human", "trial": 71, "page_name": "https://nhbturing1.psiturkdncl.online/static/responses_wordassoc/3_e_0.html", "phase": "TEST", "response_gender": "NA", "response_speaker": "human", "groundtruth": "machine", "machine_groundtruth": "GPT3(pr, Curie)"}}, "Trial_Word_65": {"workerID": "A3UBB1LJKDQGZP", "workerData": {"country": "United States", "age": "41-45", "engagement": "10", "difficulty": "3", "mode": "live", "gender": "female", "education": "bachelor", "ai-experience": "2", "condition": 0, "native": "yes"}, "trialData": {"rt": 3240, "Aclass": "Human", "trial": 72, "page_name": "https://nhbturing1.psiturkdncl.online/static/responses_wordassoc/63_f_0.html", "phase": "TEST", "response_gender": "NA", "response_speaker": "human", "groundtruth": "machine", "machine_groundtruth": "GPT3(pr, DaVinci)"}}, "Trial_Word_66": {"workerID": "A3UBB1LJKDQGZP", "workerData": {"country": "United States", "age": "41-45", "engagement": "10", "difficulty": "3", "mode": "live", "gender": "female", "education": "bachelor", "ai-experience": "2", "condition": 0, "native": "yes"}, "trialData": {"rt": 3024, "Aclass": "Human", "trial": 73, "page_name": "https://nhbturing1.psiturkdncl.online/static/responses_wordassoc/2_a_4.html", "phase": "TEST", "response_gender": "NA", "response_speaker": "human", "groundtruth": "human", "machine_groundtruth": ""}}, "Trial_Word_67": {"workerID": "A3UBB1LJKDQGZP", "workerData": {"country": "United States", "age": "41-45", "engagement": "10", "difficulty": "3", "mode": "live", "gender": "female", "education": "bachelor", "ai-experience": "2", "condition": 0, "native": "yes"}, "trialData": {"rt": 3518, "Aclass": "Human", "trial": 74, "page_name": "https://nhbturing1.psiturkdncl.online/static/responses_wordassoc/86_d_0.html", "phase": "TEST", "response_gender": "NA", "response_speaker": "human", "groundtruth": "machine", "machine_groundtruth": "GPT3(Emb)"}}, "Trial_Word_68": {"workerID": "A3UBB1LJKDQGZP", "workerData": {"country": "United States", "age": "41-45", "engagement": "10", "difficulty": "3", "mode": "live", "gender": "female", "education": "bachelor", "ai-experience": "2", "condition": 0, "native": "yes"}, "trialData": {"rt": 2644, "Aclass": "Human", "trial": 75, "page_name": "https://nhbturing1.psiturkdncl.online/static/responses_wordassoc/2_d_0.html", "phase": "TEST", "response_gender": "NA", "response_speaker": "human", "groundtruth": "machine", "machine_groundtruth": "GPT3(Emb)"}}, "Trial_Word_69": {"workerID": "A3UBB1LJKDQGZP", "workerData": {"country": "United States", "age": "41-45", "engagement": "10", "difficulty": "3", "mode": "live", "gender": "female", "education": "bachelor", "ai-experience": "2", "condition": 0, "native": "yes"}, "trialData": {"rt": 3816, "Aclass": "Machine", "trial": 77, "page_name": "https://nhbturing1.psiturkdncl.online/static/responses_wordassoc/134_a_3.html", "phase": "TEST", "response_gender": "NA", "response_speaker": "machine", "groundtruth": "human", "machine_groundtruth": ""}}, "Trial_Word_70": {"workerID": "A3UBB1LJKDQGZP", "workerData": {"country": "United States", "age": "41-45", "engagement": "10", "difficulty": "3", "mode": "live", "gender": "female", "education": "bachelor", "ai-experience": "2", "condition": 0, "native": "yes"}, "trialData": {"rt": 2941, "Aclass": "Human", "trial": 78, "page_name": "https://nhbturing1.psiturkdncl.online/static/responses_wordassoc/145_e_0.html", "phase": "TEST", "response_gender": "NA", "response_speaker": "human", "groundtruth": "machine", "machine_groundtruth": "GPT3(pr, Curie)"}}, "Trial_Word_71": {"workerID": "A3UBB1LJKDQGZP", "workerData": {"country": "United States", "age": "41-45", "engagement": "10", "difficulty": "3", "mode": "live", "gender": "female", "education": "bachelor", "ai-experience": "2", "condition": 0, "native": "yes"}, "trialData": {"rt": 2893, "Aclass": "Human", "trial": 79, "page_name": "https://nhbturing1.psiturkdncl.online/static/responses_wordassoc/51_a_0.html", "phase": "TEST", "response_gender": "NA", "response_speaker": "human", "groundtruth": "human", "machine_groundtruth": ""}}, "Trial_Word_72": {"workerID": "A3UBB1LJKDQGZP", "workerData": {"country": "United States", "age": "41-45", "engagement": "10", "difficulty": "3", "mode": "live", "gender": "female", "education": "bachelor", "ai-experience": "2", "condition": 0, "native": "yes"}, "trialData": {"rt": 2492, "Aclass": "Machine", "trial": 80, "page_name": "https://nhbturing1.psiturkdncl.online/static/responses_wordassoc/149_f_0.html", "phase": "TEST", "response_gender": "NA", "response_speaker": "machine", "groundtruth": "machine", "machine_groundtruth": "GPT3(pr, DaVinci)"}}, "Trial_Word_73": {"workerID": "A3UBB1LJKDQGZP", "workerData": {"country": "United States", "age": "41-45", "engagement": "10", "difficulty": "3", "mode": "live", "gender": "female", "education": "bachelor", "ai-experience": "2", "condition": 0, "native": "yes"}, "trialData": {"rt": 2513, "Aclass": "Human", "trial": 81, "page_name": "https://nhbturing1.psiturkdncl.online/static/responses_wordassoc/116_c_0.html", "phase": "TEST", "response_gender": "NA", "response_speaker": "human", "groundtruth": "machine", "machine_groundtruth": "GPT2"}}, "Trial_Word_74": {"workerID": "A3UBB1LJKDQGZP", "workerData": {"country": "United States", "age": "41-45", "engagement": "10", "difficulty": "3", "mode": "live", "gender": "female", "education": "bachelor", "ai-experience": "2", "condition": 0, "native": "yes"}, "trialData": {"rt": 3003, "Aclass": "Human", "trial": 82, "page_name": "https://nhbturing1.psiturkdncl.online/static/responses_wordassoc/75_b_0.html", "phase": "TEST", "response_gender": "NA", "response_speaker": "human", "groundtruth": "machine", "machine_groundtruth": "Word2Vec"}}, "Trial_Word_75": {"workerID": "A3UBB1LJKDQGZP", "workerData": {"country": "United States", "age": "41-45", "engagement": "10", "difficulty": "3", "mode": "live", "gender": "female", "education": "bachelor", "ai-experience": "2", "condition": 0, "native": "yes"}, "trialData": {"rt": 2913, "Aclass": "Human", "trial": 83, "page_name": "https://nhbturing1.psiturkdncl.online/static/responses_wordassoc/88_a_3.html", "phase": "TEST", "response_gender": "NA", "response_speaker": "human", "groundtruth": "human", "machine_groundtruth": ""}}, "Trial_Word_76": {"workerID": "A3UBB1LJKDQGZP", "workerData": {"country": "United States", "age": "41-45", "engagement": "10", "difficulty": "3", "mode": "live", "gender": "female", "education": "bachelor", "ai-experience": "2", "condition": 0, "native": "yes"}, "trialData": {"rt": 2849, "Aclass": "Machine", "trial": 86, "page_name": "https://nhbturing1.psiturkdncl.online/static/responses_wordassoc/104_e_0.html", "phase": "TEST", "response_gender": "NA", "response_speaker": "machine", "groundtruth": "machine", "machine_groundtruth": "GPT3(pr, Curie)"}}, "Trial_Word_77": {"workerID": "A3UBB1LJKDQGZP", "workerData": {"country": "United States", "age": "41-45", "engagement": "10", "difficulty": "3", "mode": "live", "gender": "female", "education": "bachelor", "ai-experience": "2", "condition": 0, "native": "yes"}, "trialData": {"rt": 3143, "Aclass": "Human", "trial": 87, "page_name": "https://nhbturing1.psiturkdncl.online/static/responses_wordassoc/74_a_1.html", "phase": "TEST", "response_gender": "NA", "response_speaker": "human", "groundtruth": "human", "machine_groundtruth": ""}}, "Trial_Word_78": {"workerID": "A3UBB1LJKDQGZP", "workerData": {"country": "United States", "age": "41-45", "engagement": "10", "difficulty": "3", "mode": "live", "gender": "female", "education": "bachelor", "ai-experience": "2", "condition": 0, "native": "yes"}, "trialData": {"rt": 4785, "Aclass": "Human", "trial": 88, "page_name": "https://nhbturing1.psiturkdncl.online/static/responses_wordassoc/85_a_3.html", "phase": "TEST", "response_gender": "NA", "response_speaker": "human", "groundtruth": "human", "machine_groundtruth": ""}}, "Trial_Word_79": {"workerID": "A3UBB1LJKDQGZP", "workerData": {"country": "United States", "age": "41-45", "engagement": "10", "difficulty": "3", "mode": "live", "gender": "female", "education": "bachelor", "ai-experience": "2", "condition": 0, "native": "yes"}, "trialData": {"rt": 2633, "Aclass": "Machine", "trial": 89, "page_name": "https://nhbturing1.psiturkdncl.online/static/responses_wordassoc/132_e_0.html", "phase": "TEST", "response_gender": "NA", "response_speaker": "machine", "groundtruth": "machine", "machine_groundtruth": "GPT3(pr, Curie)"}}, "Trial_Word_80": {"workerID": "A3UBB1LJKDQGZP", "workerData": {"country": "United States", "age": "41-45", "engagement": "10", "difficulty": "3", "mode": "live", "gender": "female", "education": "bachelor", "ai-experience": "2", "condition": 0, "native": "yes"}, "trialData": {"rt": 3090, "Aclass": "Human", "trial": 90, "page_name": "https://nhbturing1.psiturkdncl.online/static/responses_wordassoc/66_d_0.html", "phase": "TEST", "response_gender": "NA", "response_speaker": "human", "groundtruth": "machine", "machine_groundtruth": "GPT3(Emb)"}}, "Trial_Word_81": {"workerID": "A2WGW5Y3ZFBDEC", "workerData": {"country": "United States", "age": "51", "engagement": "7", "difficulty": "6", "mode": "live", "gender": "male", "education": "bachelor", "ai-experience": "2", "condition": 0, "native": "yes"}, "trialData": {"rt": 2280, "Aclass": "Human", "hit": "3_b_0.html", "trial": 42, "page_name": "https://nhbturing1.psiturkdncl.online/static/responses_wordassoc/2_f_0.html", "phase": "TEST", "response_gender": "NA", "response_speaker": "human", "groundtruth": "machine", "machine_groundtruth": "GPT3(pr, DaVinci)"}}, "Trial_Word_82": {"workerID": "A2WGW5Y3ZFBDEC", "workerData": {"country": "United States", "age": "51", "engagement": "7", "difficulty": "6", "mode": "live", "gender": "male", "education": "bachelor", "ai-experience": "2", "condition": 0, "native": "yes"}, "trialData": {"rt": 2584, "Aclass": "Machine", "hit": "101_d_0.html", "trial": 43, "page_name": "https://nhbturing1.psiturkdncl.online/static/responses_wordassoc/85_a_4.html", "phase": "TEST", "response_gender": "NA", "response_speaker": "machine", "groundtruth": "human", "machine_groundtruth": ""}}, "Trial_Word_83": {"workerID": "A2WGW5Y3ZFBDEC", "workerData": {"country": "United States", "age": "51", "engagement": "7", "difficulty": "6", "mode": "live", "gender": "male", "education": "bachelor", "ai-experience": "2", "condition": 0, "native": "yes"}, "trialData": {"rt": 2320, "Aclass": "Human", "hit": "122_c_0.html", "trial": 44, "page_name": "https://nhbturing1.psiturkdncl.online/static/responses_wordassoc/109_d_0.html", "phase": "TEST", "response_gender": "NA", "response_speaker": "human", "groundtruth": "machine", "machine_groundtruth": "GPT3(Emb)"}}, "Trial_Word_84": {"workerID": "A2WGW5Y3ZFBDEC", "workerData": {"country": "United States", "age": "51", "engagement": "7", "difficulty": "6", "mode": "live", "gender": "male", "education": "bachelor", "ai-experience": "2", "condition": 0, "native": "yes"}, "trialData": {"rt": 2432, "Aclass": "Human", "hit": "86_a_4.html", "trial": 45, "page_name": "https://nhbturing1.psiturkdncl.online/static/responses_wordassoc/72_e_0.html", "phase": "TEST", "response_gender": "NA", "response_speaker": "human", "groundtruth": "machine", "machine_groundtruth": "GPT3(pr, Curie)"}}, "Trial_Word_85": {"workerID": "A2WGW5Y3ZFBDEC", "workerData": {"country": "United States", "age": "51", "engagement": "7", "difficulty": "6", "mode": "live", "gender": "male", "education": "bachelor", "ai-experience": "2", "condition": 0, "native": "yes"}, "trialData": {"rt": 2144, "Aclass": "Human", "trial": 46, "page_name": "https://nhbturing1.psiturkdncl.online/static/responses_wordassoc/67_a_1.html", "phase": "TEST", "response_gender": "NA", "response_speaker": "human", "groundtruth": "human", "machine_groundtruth": ""}}, "Trial_Word_86": {"workerID": "A2WGW5Y3ZFBDEC", "workerData": {"country": "United States", "age": "51", "engagement": "7", "difficulty": "6", "mode": "live", "gender": "male", "education": "bachelor", "ai-experience": "2", "condition": 0, "native": "yes"}, "trialData": {"rt": 5040, "Aclass": "Machine", "trial": 48, "page_name": "https://nhbturing1.psiturkdncl.online/static/responses_wordassoc/101_a_0.html", "phase": "TEST", "response_gender": "NA", "response_speaker": "machine", "groundtruth": "human", "machine_groundtruth": ""}}, "Trial_Word_87": {"workerID": "A2WGW5Y3ZFBDEC", "workerData": {"country": "United States", "age": "51", "engagement": "7", "difficulty": "6", "mode": "live", "gender": "male", "education": "bachelor", "ai-experience": "2", "condition": 0, "native": "yes"}, "trialData": {"rt": 4976, "Aclass": "Human", "trial": 49, "page_name": "https://nhbturing1.psiturkdncl.online/static/responses_wordassoc/130_d_0.html", "phase": "TEST", "response_gender": "NA", "response_speaker": "human", "groundtruth": "machine", "machine_groundtruth": "GPT3(Emb)"}}, "Trial_Word_88": {"workerID": "A2WGW5Y3ZFBDEC", "workerData": {"country": "United States", "age": "51", "engagement": "7", "difficulty": "6", "mode": "live", "gender": "male", "education": "bachelor", "ai-experience": "2", "condition": 0, "native": "yes"}, "trialData": {"rt": 2472, "Aclass": "Human", "trial": 50, "page_name": "https://nhbturing1.psiturkdncl.online/static/responses_wordassoc/133_a_3.html", "phase": "TEST", "response_gender": "NA", "response_speaker": "human", "groundtruth": "human", "machine_groundtruth": ""}}, "Trial_Word_89": {"workerID": "A2WGW5Y3ZFBDEC", "workerData": {"country": "United States", "age": "51", "engagement": "7", "difficulty": "6", "mode": "live", "gender": "male", "education": "bachelor", "ai-experience": "2", "condition": 0, "native": "yes"}, "trialData": {"rt": 3920, "Aclass": "Human", "trial": 52, "page_name": "https://nhbturing1.psiturkdncl.online/static/responses_wordassoc/137_f_0.html", "phase": "TEST", "response_gender": "NA", "response_speaker": "human", "groundtruth": "machine", "machine_groundtruth": "GPT3(pr, DaVinci)"}}, "Trial_Word_90": {"workerID": "A2WGW5Y3ZFBDEC", "workerData": {"country": "United States", "age": "51", "engagement": "7", "difficulty": "6", "mode": "live", "gender": "male", "education": "bachelor", "ai-experience": "2", "condition": 0, "native": "yes"}, "trialData": {"rt": 3024, "Aclass": "Human", "trial": 53, "page_name": "https://nhbturing1.psiturkdncl.online/static/responses_wordassoc/39_a_1.html", "phase": "TEST", "response_gender": "NA", "response_speaker": "human", "groundtruth": "human", "machine_groundtruth": ""}}, "Trial_Word_91": {"workerID": "A2WGW5Y3ZFBDEC", "workerData": {"country": "United States", "age": "51", "engagement": "7", "difficulty": "6", "mode": "live", "gender": "male", "education": "bachelor", "ai-experience": "2", "condition": 0, "native": "yes"}, "trialData": {"rt": 3671, "Aclass": "Human", "trial": 55, "page_name": "https://nhbturing1.psiturkdncl.online/static/responses_wordassoc/40_a_2.html", "phase": "TEST", "response_gender": "NA", "response_speaker": "human", "groundtruth": "human", "machine_groundtruth": ""}}, "Trial_Word_92": {"workerID": "A2WGW5Y3ZFBDEC", "workerData": {"country": "United States", "age": "51", "engagement": "7", "difficulty": "6", "mode": "live", "gender": "male", "education": "bachelor", "ai-experience": "2", "condition": 0, "native": "yes"}, "trialData": {"rt": 2504, "Aclass": "Human", "trial": 56, "page_name": "https://nhbturing1.psiturkdncl.online/static/responses_wordassoc/110_f_0.html", "phase": "TEST", "response_gender": "NA", "response_speaker": "human", "groundtruth": "machine", "machine_groundtruth": "GPT3(pr, DaVinci)"}}, "Trial_Word_93": {"workerID": "A2WGW5Y3ZFBDEC", "workerData": {"country": "United States", "age": "51", "engagement": "7", "difficulty": "6", "mode": "live", "gender": "male", "education": "bachelor", "ai-experience": "2", "condition": 0, "native": "yes"}, "trialData": {"rt": 2486, "Aclass": "Machine", "trial": 57, "page_name": "https://nhbturing1.psiturkdncl.online/static/responses_wordassoc/82_b_0.html", "phase": "TEST", "response_gender": "NA", "response_speaker": "machine", "groundtruth": "machine", "machine_groundtruth": "Word2Vec"}}, "Trial_Word_94": {"workerID": "A2WGW5Y3ZFBDEC", "workerData": {"country": "United States", "age": "51", "engagement": "7", "difficulty": "6", "mode": "live", "gender": "male", "education": "bachelor", "ai-experience": "2", "condition": 0, "native": "yes"}, "trialData": {"rt": 2208, "Aclass": "Human", "trial": 58, "page_name": "https://nhbturing1.psiturkdncl.online/static/responses_wordassoc/83_a_0.html", "phase": "TEST", "response_gender": "NA", "response_speaker": "human", "groundtruth": "human", "machine_groundtruth": ""}}, "Trial_Word_95": {"workerID": "A2WGW5Y3ZFBDEC", "workerData": {"country": "United States", "age": "51", "engagement": "7", "difficulty": "6", "mode": "live", "gender": "male", "education": "bachelor", "ai-experience": "2", "condition": 0, "native": "yes"}, "trialData": {"rt": 1800, "Aclass": "Human", "trial": 59, "page_name": "https://nhbturing1.psiturkdncl.online/static/responses_wordassoc/60_e_0.html", "phase": "TEST", "response_gender": "NA", "response_speaker": "human", "groundtruth": "machine", "machine_groundtruth": "GPT3(pr, Curie)"}}, "Trial_Word_96": {"workerID": "A2WGW5Y3ZFBDEC", "workerData": {"country": "United States", "age": "51", "engagement": "7", "difficulty": "6", "mode": "live", "gender": "male", "education": "bachelor", "ai-experience": "2", "condition": 0, "native": "yes"}, "trialData": {"rt": 2320, "Aclass": "Human", "trial": 61, "page_name": "https://nhbturing1.psiturkdncl.online/static/responses_wordassoc/145_a_2.html", "phase": "TEST", "response_gender": "NA", "response_speaker": "human", "groundtruth": "human", "machine_groundtruth": ""}}, "Trial_Word_97": {"workerID": "A2WGW5Y3ZFBDEC", "workerData": {"country": "United States", "age": "51", "engagement": "7", "difficulty": "6", "mode": "live", "gender": "male", "education": "bachelor", "ai-experience": "2", "condition": 0, "native": "yes"}, "trialData": {"rt": 2078, "Aclass": "Human", "trial": 62, "page_name": "https://nhbturing1.psiturkdncl.online/static/responses_wordassoc/102_a_3.html", "phase": "TEST", "response_gender": "NA", "response_speaker": "human", "groundtruth": "human", "machine_groundtruth": ""}}, "Trial_Word_98": {"workerID": "A2WGW5Y3ZFBDEC", "workerData": {"country": "United States", "age": "51", "engagement": "7", "difficulty": "6", "mode": "live", "gender": "male", "education": "bachelor", "ai-experience": "2", "condition": 0, "native": "yes"}, "trialData": {"rt": 2137, "Aclass": "Human", "trial": 63, "page_name": "https://nhbturing1.psiturkdncl.online/static/responses_wordassoc/36_d_0.html", "phase": "TEST", "response_gender": "NA", "response_speaker": "human", "groundtruth": "machine", "machine_groundtruth": "GPT3(Emb)"}}, "Trial_Word_99": {"workerID": "A2WGW5Y3ZFBDEC", "workerData": {"country": "United States", "age": "51", "engagement": "7", "difficulty": "6", "mode": "live", "gender": "male", "education": "bachelor", "ai-experience": "2", "condition": 0, "native": "yes"}, "trialData": {"rt": 4776, "Aclass": "Machine", "trial": 64, "page_name": "https://nhbturing1.psiturkdncl.online/static/responses_wordassoc/60_a_2.html", "phase": "TEST", "response_gender": "NA", "response_speaker": "machine", "groundtruth": "human", "machine_groundtruth": ""}}, "Trial_Word_100": {"workerID": "A2WGW5Y3ZFBDEC", "workerData": {"country": "United States", "age": "51", "engagement": "7", "difficulty": "6", "mode": "live", "gender": "male", "education": "bachelor", "ai-experience": "2", "condition": 0, "native": "yes"}, "trialData": {"rt": 2968, "Aclass": "Machine", "trial": 65, "page_name": "https://nhbturing1.psiturkdncl.online/static/responses_wordassoc/131_b_0.html", "phase": "TEST", "response_gender": "NA", "response_speaker": "machine", "groundtruth": "machine", "machine_groundtruth": "Word2Vec"}}, "Trial_Word_101": {"workerID": "A2WGW5Y3ZFBDEC", "workerData": {"country": "United States", "age": "51", "engagement": "7", "difficulty": "6", "mode": "live", "gender": "male", "education": "bachelor", "ai-experience": "2", "condition": 0, "native": "yes"}, "trialData": {"rt": 2552, "Aclass": "Human", "trial": 67, "page_name": "https://nhbturing1.psiturkdncl.online/static/responses_wordassoc/119_a_1.html", "phase": "TEST", "response_gender": "NA", "response_speaker": "human", "groundtruth": "human", "machine_groundtruth": ""}}, "Trial_Word_102": {"workerID": "A2WGW5Y3ZFBDEC", "workerData": {"country": "United States", "age": "51", "engagement": "7", "difficulty": "6", "mode": "live", "gender": "male", "education": "bachelor", "ai-experience": "2", "condition": 0, "native": "yes"}, "trialData": {"rt": 2000, "Aclass": "Human", "trial": 68, "page_name": "https://nhbturing1.psiturkdncl.online/static/responses_wordassoc/88_a_3.html", "phase": "TEST", "response_gender": "NA", "response_speaker": "human", "groundtruth": "human", "machine_groundtruth": ""}}, "Trial_Word_103": {"workerID": "A2WGW5Y3ZFBDEC", "workerData": {"country": "United States", "age": "51", "engagement": "7", "difficulty": "6", "mode": "live", "gender": "male", "education": "bachelor", "ai-experience": "2", "condition": 0, "native": "yes"}, "trialData": {"rt": 2367, "Aclass": "Human", "trial": 69, "page_name": "https://nhbturing1.psiturkdncl.online/static/responses_wordassoc/95_a_3.html", "phase": "TEST", "response_gender": "NA", "response_speaker": "human", "groundtruth": "human", "machine_groundtruth": ""}}, "Trial_Word_104": {"workerID": "A2WGW5Y3ZFBDEC", "workerData": {"country": "United States", "age": "51", "engagement": "7", "difficulty": "6", "mode": "live", "gender": "male", "education": "bachelor", "ai-experience": "2", "condition": 0, "native": "yes"}, "trialData": {"rt": 6320, "Aclass": "Human", "trial": 70, "page_name": "https://nhbturing1.psiturkdncl.online/static/responses_wordassoc/91_a_2.html", "phase": "TEST", "response_gender": "NA", "response_speaker": "human", "groundtruth": "human", "machine_groundtruth": ""}}, "Trial_Word_105": {"workerID": "A2WGW5Y3ZFBDEC", "workerData": {"country": "United States", "age": "51", "engagement": "7", "difficulty": "6", "mode": "live", "gender": "male", "education": "bachelor", "ai-experience": "2", "condition": 0, "native": "yes"}, "trialData": {"rt": 3639, "Aclass": "Machine", "trial": 73, "page_name": "https://nhbturing1.psiturkdncl.online/static/responses_wordassoc/145_c_0.html", "phase": "TEST", "response_gender": "NA", "response_speaker": "machine", "groundtruth": "machine", "machine_groundtruth": "GPT2"}}, "Trial_Word_106": {"workerID": "A2WGW5Y3ZFBDEC", "workerData": {"country": "United States", "age": "51", "engagement": "7", "difficulty": "6", "mode": "live", "gender": "male", "education": "bachelor", "ai-experience": "2", "condition": 0, "native": "yes"}, "trialData": {"rt": 2152, "Aclass": "Human", "trial": 75, "page_name": "https://nhbturing1.psiturkdncl.online/static/responses_wordassoc/78_e_0.html", "phase": "TEST", "response_gender": "NA", "response_speaker": "human", "groundtruth": "machine", "machine_groundtruth": "GPT3(pr, Curie)"}}, "Trial_Word_107": {"workerID": "A2WGW5Y3ZFBDEC", "workerData": {"country": "United States", "age": "51", "engagement": "7", "difficulty": "6", "mode": "live", "gender": "male", "education": "bachelor", "ai-experience": "2", "condition": 0, "native": "yes"}, "trialData": {"rt": 2423, "Aclass": "Human", "trial": 76, "page_name": "https://nhbturing1.psiturkdncl.online/static/responses_wordassoc/75_b_0.html", "phase": "TEST", "response_gender": "NA", "response_speaker": "human", "groundtruth": "machine", "machine_groundtruth": "Word2Vec"}}, "Trial_Word_108": {"workerID": "A2WGW5Y3ZFBDEC", "workerData": {"country": "United States", "age": "51", "engagement": "7", "difficulty": "6", "mode": "live", "gender": "male", "education": "bachelor", "ai-experience": "2", "condition": 0, "native": "yes"}, "trialData": {"rt": 2338, "Aclass": "Human", "trial": 78, "page_name": "https://nhbturing1.psiturkdncl.online/static/responses_wordassoc/146_e_0.html", "phase": "TEST", "response_gender": "NA", "response_speaker": "human", "groundtruth": "machine", "machine_groundtruth": "GPT3(pr, Curie)"}}, "Trial_Word_109": {"workerID": "A2WGW5Y3ZFBDEC", "workerData": {"country": "United States", "age": "51", "engagement": "7", "difficulty": "6", "mode": "live", "gender": "male", "education": "bachelor", "ai-experience": "2", "condition": 0, "native": "yes"}, "trialData": {"rt": 1855, "Aclass": "Human", "trial": 79, "page_name": "https://nhbturing1.psiturkdncl.online/static/responses_wordassoc/137_a_1.html", "phase": "TEST", "response_gender": "NA", "response_speaker": "human", "groundtruth": "human", "machine_groundtruth": ""}}, "Trial_Word_110": {"workerID": "A2WGW5Y3ZFBDEC", "workerData": {"country": "United States", "age": "51", "engagement": "7", "difficulty": "6", "mode": "live", "gender": "male", "education": "bachelor", "ai-experience": "2", "condition": 0, "native": "yes"}, "trialData": {"rt": 2839, "Aclass": "Human", "trial": 80, "page_name": "https://nhbturing1.psiturkdncl.online/static/responses_wordassoc/42_c_0.html", "phase": "TEST", "response_gender": "NA", "response_speaker": "human", "groundtruth": "machine", "machine_groundtruth": "GPT2"}}, "Trial_Word_111": {"workerID": "A2WGW5Y3ZFBDEC", "workerData": {"country": "United States", "age": "51", "engagement": "7", "difficulty": "6", "mode": "live", "gender": "male", "education": "bachelor", "ai-experience": "2", "condition": 0, "native": "yes"}, "trialData": {"rt": 2224, "Aclass": "Human", "trial": 81, "page_name": "https://nhbturing1.psiturkdncl.online/static/responses_wordassoc/115_a_1.html", "phase": "TEST", "response_gender": "NA", "response_speaker": "human", "groundtruth": "human", "machine_groundtruth": ""}}, "Trial_Word_112": {"workerID": "A2WGW5Y3ZFBDEC", "workerData": {"country": "United States", "age": "51", "engagement": "7", "difficulty": "6", "mode": "live", "gender": "male", "education": "bachelor", "ai-experience": "2", "condition": 0, "native": "yes"}, "trialData": {"rt": 4679, "Aclass": "Human", "trial": 82, "page_name": "https://nhbturing1.psiturkdncl.online/static/responses_wordassoc/17_a_2.html", "phase": "TEST", "response_gender": "NA", "response_speaker": "human", "groundtruth": "human", "machine_groundtruth": ""}}, "Trial_Word_113": {"workerID": "A2WGW5Y3ZFBDEC", "workerData": {"country": "United States", "age": "51", "engagement": "7", "difficulty": "6", "mode": "live", "gender": "male", "education": "bachelor", "ai-experience": "2", "condition": 0, "native": "yes"}, "trialData": {"rt": 1936, "Aclass": "Human", "trial": 83, "page_name": "https://nhbturing1.psiturkdncl.online/static/responses_wordassoc/51_a_4.html", "phase": "TEST", "response_gender": "NA", "response_speaker": "human", "groundtruth": "human", "machine_groundtruth": ""}}, "Trial_Word_114": {"workerID": "A2WGW5Y3ZFBDEC", "workerData": {"country": "United States", "age": "51", "engagement": "7", "difficulty": "6", "mode": "live", "gender": "male", "education": "bachelor", "ai-experience": "2", "condition": 0, "native": "yes"}, "trialData": {"rt": 3703, "Aclass": "Machine", "trial": 84, "page_name": "https://nhbturing1.psiturkdncl.online/static/responses_wordassoc/3_b_0.html", "phase": "TEST", "response_gender": "NA", "response_speaker": "machine", "groundtruth": "machine", "machine_groundtruth": "Word2Vec"}}, "Trial_Word_115": {"workerID": "A2WGW5Y3ZFBDEC", "workerData": {"country": "United States", "age": "51", "engagement": "7", "difficulty": "6", "mode": "live", "gender": "male", "education": "bachelor", "ai-experience": "2", "condition": 0, "native": "yes"}, "trialData": {"rt": 3046, "Aclass": "Machine", "trial": 85, "page_name": "https://nhbturing1.psiturkdncl.online/static/responses_wordassoc/66_a_3.html", "phase": "TEST", "response_gender": "NA", "response_speaker": "machine", "groundtruth": "human", "machine_groundtruth": ""}}, "Trial_Word_116": {"workerID": "A2WGW5Y3ZFBDEC", "workerData": {"country": "United States", "age": "51", "engagement": "7", "difficulty": "6", "mode": "live", "gender": "male", "education": "bachelor", "ai-experience": "2", "condition": 0, "native": "yes"}, "trialData": {"rt": 2840, "Aclass": "Machine", "trial": 86, "page_name": "https://nhbturing1.psiturkdncl.online/static/responses_wordassoc/101_d_0.html", "phase": "TEST", "response_gender": "NA", "response_speaker": "machine", "groundtruth": "machine", "machine_groundtruth": "GPT3(Emb)"}}, "Trial_Word_117": {"workerID": "A2WGW5Y3ZFBDEC", "workerData": {"country": "United States", "age": "51", "engagement": "7", "difficulty": "6", "mode": "live", "gender": "male", "education": "bachelor", "ai-experience": "2", "condition": 0, "native": "yes"}, "trialData": {"rt": 3416, "Aclass": "Machine", "trial": 87, "page_name": "https://nhbturing1.psiturkdncl.online/static/responses_wordassoc/92_f_0.html", "phase": "TEST", "response_gender": "NA", "response_speaker": "machine", "groundtruth": "machine", "machine_groundtruth": "GPT3(pr, DaVinci)"}}, "Trial_Word_118": {"workerID": "A2WGW5Y3ZFBDEC", "workerData": {"country": "United States", "age": "51", "engagement": "7", "difficulty": "6", "mode": "live", "gender": "male", "education": "bachelor", "ai-experience": "2", "condition": 0, "native": "yes"}, "trialData": {"rt": 2887, "Aclass": "Human", "trial": 88, "page_name": "https://nhbturing1.psiturkdncl.online/static/responses_wordassoc/122_c_0.html", "phase": "TEST", "response_gender": "NA", "response_speaker": "human", "groundtruth": "machine", "machine_groundtruth": "GPT2"}}, "Trial_Word_119": {"workerID": "A2WGW5Y3ZFBDEC", "workerData": {"country": "United States", "age": "51", "engagement": "7", "difficulty": "6", "mode": "live", "gender": "male", "education": "bachelor", "ai-experience": "2", "condition": 0, "native": "yes"}, "trialData": {"rt": 1926, "Aclass": "Human", "trial": 89, "page_name": "https://nhbturing1.psiturkdncl.online/static/responses_wordassoc/110_c_0.html", "phase": "TEST", "response_gender": "NA", "response_speaker": "human", "groundtruth": "machine", "machine_groundtruth": "GPT2"}}, "Trial_Word_120": {"workerID": "A2WGW5Y3ZFBDEC", "workerData": {"country": "United States", "age": "51", "engagement": "7", "difficulty": "6", "mode": "live", "gender": "male", "education": "bachelor", "ai-experience": "2", "condition": 0, "native": "yes"}, "trialData": {"rt": 2792, "Aclass": "Machine", "trial": 90, "page_name": "https://nhbturing1.psiturkdncl.online/static/responses_wordassoc/86_a_4.html", "phase": "TEST", "response_gender": "NA", "response_speaker": "machine", "groundtruth": "human", "machine_groundtruth": ""}}, "Trial_Word_121": {"workerID": "A3PYB8Z6FFWSOV", "workerData": {"country": "United States", "age": "31-35", "engagement": "5", "difficulty": "5", "mode": "live", "gender": "female", "education": "bachelor", "ai-experience": "1", "condition": 0, "native": "yes"}, "trialData": {"rt": 3095, "Aclass": "Machine", "hit": "2_a_2.html", "trial": 43, "page_name": "https://nhbturing1.psiturkdncl.online/static/responses_wordassoc/74_b_0.html", "phase": "TEST", "response_gender": "NA", "response_speaker": "machine", "groundtruth": "machine", "machine_groundtruth": "Word2Vec"}}, "Trial_Word_122": {"workerID": "A3PYB8Z6FFWSOV", "workerData": {"country": "United States", "age": "31-35", "engagement": "5", "difficulty": "5", "mode": "live", "gender": "female", "education": "bachelor", "ai-experience": "1", "condition": 0, "native": "yes"}, "trialData": {"rt": 3061, "Aclass": "Machine", "hit": "115_g_0.html", "trial": 44, "page_name": "https://nhbturing1.psiturkdncl.online/static/responses_wordassoc/40_c_0.html", "phase": "TEST", "response_gender": "NA", "response_speaker": "machine", "groundtruth": "machine", "machine_groundtruth": "GPT2"}}, "Trial_Word_123": {"workerID": "A3PYB8Z6FFWSOV", "workerData": {"country": "United States", "age": "31-35", "engagement": "5", "difficulty": "5", "mode": "live", "gender": "female", "education": "bachelor", "ai-experience": "1", "condition": 0, "native": "yes"}, "trialData": {"rt": 2988, "Aclass": "Human", "hit": "4_g_0.html", "trial": 45, "page_name": "https://nhbturing1.psiturkdncl.online/static/responses_wordassoc/115_c_0.html", "phase": "TEST", "response_gender": "NA", "response_speaker": "human", "groundtruth": "machine", "machine_groundtruth": "GPT2"}}, "Trial_Word_124": {"workerID": "A3PYB8Z6FFWSOV", "workerData": {"country": "United States", "age": "31-35", "engagement": "5", "difficulty": "5", "mode": "live", "gender": "female", "education": "bachelor", "ai-experience": "1", "condition": 0, "native": "yes"}, "trialData": {"rt": 3445, "Aclass": "Machine", "trial": 46, "page_name": "https://nhbturing1.psiturkdncl.online/static/responses_wordassoc/92_a_2.html", "phase": "TEST", "response_gender": "NA", "response_speaker": "machine", "groundtruth": "human", "machine_groundtruth": ""}}, "Trial_Word_125": {"workerID": "A3PYB8Z6FFWSOV", "workerData": {"country": "United States", "age": "31-35", "engagement": "5", "difficulty": "5", "mode": "live", "gender": "female", "education": "bachelor", "ai-experience": "1", "condition": 0, "native": "yes"}, "trialData": {"rt": 2955, "Aclass": "Machine", "trial": 47, "page_name": "https://nhbturing1.psiturkdncl.online/static/responses_wordassoc/16_b_0.html", "phase": "TEST", "response_gender": "NA", "response_speaker": "machine", "groundtruth": "machine", "machine_groundtruth": "Word2Vec"}}, "Trial_Word_126": {"workerID": "A3PYB8Z6FFWSOV", "workerData": {"country": "United States", "age": "31-35", "engagement": "5", "difficulty": "5", "mode": "live", "gender": "female", "education": "bachelor", "ai-experience": "1", "condition": 0, "native": "yes"}, "trialData": {"rt": 2777, "Aclass": "Machine", "trial": 48, "page_name": "https://nhbturing1.psiturkdncl.online/static/responses_wordassoc/38_d_0.html", "phase": "TEST", "response_gender": "NA", "response_speaker": "machine", "groundtruth": "machine", "machine_groundtruth": "GPT3(Emb)"}}, "Trial_Word_127": {"workerID": "A3PYB8Z6FFWSOV", "workerData": {"country": "United States", "age": "31-35", "engagement": "5", "difficulty": "5", "mode": "live", "gender": "female", "education": "bachelor", "ai-experience": "1", "condition": 0, "native": "yes"}, "trialData": {"rt": 3665, "Aclass": "Machine", "trial": 49, "page_name": "https://nhbturing1.psiturkdncl.online/static/responses_wordassoc/74_a_0.html", "phase": "TEST", "response_gender": "NA", "response_speaker": "machine", "groundtruth": "human", "machine_groundtruth": ""}}, "Trial_Word_128": {"workerID": "A3PYB8Z6FFWSOV", "workerData": {"country": "United States", "age": "31-35", "engagement": "5", "difficulty": "5", "mode": "live", "gender": "female", "education": "bachelor", "ai-experience": "1", "condition": 0, "native": "yes"}, "trialData": {"rt": 3063, "Aclass": "Machine", "trial": 50, "page_name": "https://nhbturing1.psiturkdncl.online/static/responses_wordassoc/64_e_0.html", "phase": "TEST", "response_gender": "NA", "response_speaker": "machine", "groundtruth": "machine", "machine_groundtruth": "GPT3(pr, Curie)"}}, "Trial_Word_129": {"workerID": "A3PYB8Z6FFWSOV", "workerData": {"country": "United States", "age": "31-35", "engagement": "5", "difficulty": "5", "mode": "live", "gender": "female", "education": "bachelor", "ai-experience": "1", "condition": 0, "native": "yes"}, "trialData": {"rt": 3878, "Aclass": "Machine", "trial": 51, "page_name": "https://nhbturing1.psiturkdncl.online/static/responses_wordassoc/78_b_0.html", "phase": "TEST", "response_gender": "NA", "response_speaker": "machine", "groundtruth": "machine", "machine_groundtruth": "Word2Vec"}}, "Trial_Word_130": {"workerID": "A3PYB8Z6FFWSOV", "workerData": {"country": "United States", "age": "31-35", "engagement": "5", "difficulty": "5", "mode": "live", "gender": "female", "education": "bachelor", "ai-experience": "1", "condition": 0, "native": "yes"}, "trialData": {"rt": 3184, "Aclass": "Machine", "trial": 52, "page_name": "https://nhbturing1.psiturkdncl.online/static/responses_wordassoc/60_e_0.html", "phase": "TEST", "response_gender": "NA", "response_speaker": "machine", "groundtruth": "machine", "machine_groundtruth": "GPT3(pr, Curie)"}}, "Trial_Word_131": {"workerID": "A3PYB8Z6FFWSOV", "workerData": {"country": "United States", "age": "31-35", "engagement": "5", "difficulty": "5", "mode": "live", "gender": "female", "education": "bachelor", "ai-experience": "1", "condition": 0, "native": "yes"}, "trialData": {"rt": 4188, "Aclass": "Machine", "trial": 53, "page_name": "https://nhbturing1.psiturkdncl.online/static/responses_wordassoc/85_a_2.html", "phase": "TEST", "response_gender": "NA", "response_speaker": "machine", "groundtruth": "human", "machine_groundtruth": ""}}, "Trial_Word_132": {"workerID": "A3PYB8Z6FFWSOV", "workerData": {"country": "United States", "age": "31-35", "engagement": "5", "difficulty": "5", "mode": "live", "gender": "female", "education": "bachelor", "ai-experience": "1", "condition": 0, "native": "yes"}, "trialData": {"rt": 2757, "Aclass": "Machine", "trial": 54, "page_name": "https://nhbturing1.psiturkdncl.online/static/responses_wordassoc/63_a_0.html", "phase": "TEST", "response_gender": "NA", "response_speaker": "machine", "groundtruth": "human", "machine_groundtruth": ""}}, "Trial_Word_133": {"workerID": "A3PYB8Z6FFWSOV", "workerData": {"country": "United States", "age": "31-35", "engagement": "5", "difficulty": "5", "mode": "live", "gender": "female", "education": "bachelor", "ai-experience": "1", "condition": 0, "native": "yes"}, "trialData": {"rt": 3131, "Aclass": "Human", "trial": 56, "page_name": "https://nhbturing1.psiturkdncl.online/static/responses_wordassoc/53_a_1.html", "phase": "TEST", "response_gender": "NA", "response_speaker": "human", "groundtruth": "human", "machine_groundtruth": ""}}, "Trial_Word_134": {"workerID": "A3PYB8Z6FFWSOV", "workerData": {"country": "United States", "age": "31-35", "engagement": "5", "difficulty": "5", "mode": "live", "gender": "female", "education": "bachelor", "ai-experience": "1", "condition": 0, "native": "yes"}, "trialData": {"rt": 4659, "Aclass": "Machine", "trial": 57, "page_name": "https://nhbturing1.psiturkdncl.online/static/responses_wordassoc/31_a_4.html", "phase": "TEST", "response_gender": "NA", "response_speaker": "machine", "groundtruth": "human", "machine_groundtruth": ""}}, "Trial_Word_135": {"workerID": "A3PYB8Z6FFWSOV", "workerData": {"country": "United States", "age": "31-35", "engagement": "5", "difficulty": "5", "mode": "live", "gender": "female", "education": "bachelor", "ai-experience": "1", "condition": 0, "native": "yes"}, "trialData": {"rt": 3677, "Aclass": "Human", "trial": 58, "page_name": "https://nhbturing1.psiturkdncl.online/static/responses_wordassoc/86_e_0.html", "phase": "TEST", "response_gender": "NA", "response_speaker": "human", "groundtruth": "machine", "machine_groundtruth": "GPT3(pr, Curie)"}}, "Trial_Word_136": {"workerID": "A3PYB8Z6FFWSOV", "workerData": {"country": "United States", "age": "31-35", "engagement": "5", "difficulty": "5", "mode": "live", "gender": "female", "education": "bachelor", "ai-experience": "1", "condition": 0, "native": "yes"}, "trialData": {"rt": 3431, "Aclass": "Human", "trial": 59, "page_name": "https://nhbturing1.psiturkdncl.online/static/responses_wordassoc/18_a_3.html", "phase": "TEST", "response_gender": "NA", "response_speaker": "human", "groundtruth": "human", "machine_groundtruth": ""}}, "Trial_Word_137": {"workerID": "A3PYB8Z6FFWSOV", "workerData": {"country": "United States", "age": "31-35", "engagement": "5", "difficulty": "5", "mode": "live", "gender": "female", "education": "bachelor", "ai-experience": "1", "condition": 0, "native": "yes"}, "trialData": {"rt": 2470, "Aclass": "Machine", "trial": 60, "page_name": "https://nhbturing1.psiturkdncl.online/static/responses_wordassoc/60_a_3.html", "phase": "TEST", "response_gender": "NA", "response_speaker": "machine", "groundtruth": "human", "machine_groundtruth": ""}}, "Trial_Word_138": {"workerID": "A3PYB8Z6FFWSOV", "workerData": {"country": "United States", "age": "31-35", "engagement": "5", "difficulty": "5", "mode": "live", "gender": "female", "education": "bachelor", "ai-experience": "1", "condition": 0, "native": "yes"}, "trialData": {"rt": 3025, "Aclass": "Machine", "trial": 61, "page_name": "https://nhbturing1.psiturkdncl.online/static/responses_wordassoc/123_a_0.html", "phase": "TEST", "response_gender": "NA", "response_speaker": "machine", "groundtruth": "human", "machine_groundtruth": ""}}, "Trial_Word_139": {"workerID": "A3PYB8Z6FFWSOV", "workerData": {"country": "United States", "age": "31-35", "engagement": "5", "difficulty": "5", "mode": "live", "gender": "female", "education": "bachelor", "ai-experience": "1", "condition": 0, "native": "yes"}, "trialData": {"rt": 3742, "Aclass": "Machine", "trial": 62, "page_name": "https://nhbturing1.psiturkdncl.online/static/responses_wordassoc/66_a_2.html", "phase": "TEST", "response_gender": "NA", "response_speaker": "machine", "groundtruth": "human", "machine_groundtruth": ""}}, "Trial_Word_140": {"workerID": "A3PYB8Z6FFWSOV", "workerData": {"country": "United States", "age": "31-35", "engagement": "5", "difficulty": "5", "mode": "live", "gender": "female", "education": "bachelor", "ai-experience": "1", "condition": 0, "native": "yes"}, "trialData": {"rt": 2784, "Aclass": "Human", "trial": 64, "page_name": "https://nhbturing1.psiturkdncl.online/static/responses_wordassoc/51_a_4.html", "phase": "TEST", "response_gender": "NA", "response_speaker": "human", "groundtruth": "human", "machine_groundtruth": ""}}, "Trial_Word_141": {"workerID": "A3PYB8Z6FFWSOV", "workerData": {"country": "United States", "age": "31-35", "engagement": "5", "difficulty": "5", "mode": "live", "gender": "female", "education": "bachelor", "ai-experience": "1", "condition": 0, "native": "yes"}, "trialData": {"rt": 3912, "Aclass": "Machine", "trial": 65, "page_name": "https://nhbturing1.psiturkdncl.online/static/responses_wordassoc/49_f_0.html", "phase": "TEST", "response_gender": "NA", "response_speaker": "machine", "groundtruth": "machine", "machine_groundtruth": "GPT3(pr, DaVinci)"}}, "Trial_Word_142": {"workerID": "A3PYB8Z6FFWSOV", "workerData": {"country": "United States", "age": "31-35", "engagement": "5", "difficulty": "5", "mode": "live", "gender": "female", "education": "bachelor", "ai-experience": "1", "condition": 0, "native": "yes"}, "trialData": {"rt": 3091, "Aclass": "Machine", "trial": 66, "page_name": "https://nhbturing1.psiturkdncl.online/static/responses_wordassoc/38_f_0.html", "phase": "TEST", "response_gender": "NA", "response_speaker": "machine", "groundtruth": "machine", "machine_groundtruth": "GPT3(pr, DaVinci)"}}, "Trial_Word_143": {"workerID": "A3PYB8Z6FFWSOV", "workerData": {"country": "United States", "age": "31-35", "engagement": "5", "difficulty": "5", "mode": "live", "gender": "female", "education": "bachelor", "ai-experience": "1", "condition": 0, "native": "yes"}, "trialData": {"rt": 2814, "Aclass": "Human", "trial": 67, "page_name": "https://nhbturing1.psiturkdncl.online/static/responses_wordassoc/72_f_0.html", "phase": "TEST", "response_gender": "NA", "response_speaker": "human", "groundtruth": "machine", "machine_groundtruth": "GPT3(pr, DaVinci)"}}, "Trial_Word_144": {"workerID": "A3PYB8Z6FFWSOV", "workerData": {"country": "United States", "age": "31-35", "engagement": "5", "difficulty": "5", "mode": "live", "gender": "female", "education": "bachelor", "ai-experience": "1", "condition": 0, "native": "yes"}, "trialData": {"rt": 2609, "Aclass": "Machine", "trial": 68, "page_name": "https://nhbturing1.psiturkdncl.online/static/responses_wordassoc/39_f_0.html", "phase": "TEST", "response_gender": "NA", "response_speaker": "machine", "groundtruth": "machine", "machine_groundtruth": "GPT3(pr, DaVinci)"}}, "Trial_Word_145": {"workerID": "A3PYB8Z6FFWSOV", "workerData": {"country": "United States", "age": "31-35", "engagement": "5", "difficulty": "5", "mode": "live", "gender": "female", "education": "bachelor", "ai-experience": "1", "condition": 0, "native": "yes"}, "trialData": {"rt": 2807, "Aclass": "Machine", "trial": 69, "page_name": "https://nhbturing1.psiturkdncl.online/static/responses_wordassoc/102_a_3.html", "phase": "TEST", "response_gender": "NA", "response_speaker": "machine", "groundtruth": "human", "machine_groundtruth": ""}}, "Trial_Word_146": {"workerID": "A3PYB8Z6FFWSOV", "workerData": {"country": "United States", "age": "31-35", "engagement": "5", "difficulty": "5", "mode": "live", "gender": "female", "education": "bachelor", "ai-experience": "1", "condition": 0, "native": "yes"}, "trialData": {"rt": 3192, "Aclass": "Machine", "trial": 70, "page_name": "https://nhbturing1.psiturkdncl.online/static/responses_wordassoc/116_a_1.html", "phase": "TEST", "response_gender": "NA", "response_speaker": "machine", "groundtruth": "human", "machine_groundtruth": ""}}, "Trial_Word_147": {"workerID": "A3PYB8Z6FFWSOV", "workerData": {"country": "United States", "age": "31-35", "engagement": "5", "difficulty": "5", "mode": "live", "gender": "female", "education": "bachelor", "ai-experience": "1", "condition": 0, "native": "yes"}, "trialData": {"rt": 2554, "Aclass": "Machine", "trial": 72, "page_name": "https://nhbturing1.psiturkdncl.online/static/responses_wordassoc/91_d_0.html", "phase": "TEST", "response_gender": "NA", "response_speaker": "machine", "groundtruth": "machine", "machine_groundtruth": "GPT3(Emb)"}}, "Trial_Word_148": {"workerID": "A3PYB8Z6FFWSOV", "workerData": {"country": "United States", "age": "31-35", "engagement": "5", "difficulty": "5", "mode": "live", "gender": "female", "education": "bachelor", "ai-experience": "1", "condition": 0, "native": "yes"}, "trialData": {"rt": 5245, "Aclass": "Machine", "trial": 73, "page_name": "https://nhbturing1.psiturkdncl.online/static/responses_wordassoc/66_c_0.html", "phase": "TEST", "response_gender": "NA", "response_speaker": "machine", "groundtruth": "machine", "machine_groundtruth": "GPT2"}}, "Trial_Word_149": {"workerID": "A3PYB8Z6FFWSOV", "workerData": {"country": "United States", "age": "31-35", "engagement": "5", "difficulty": "5", "mode": "live", "gender": "female", "education": "bachelor", "ai-experience": "1", "condition": 0, "native": "yes"}, "trialData": {"rt": 2330, "Aclass": "Machine", "trial": 74, "page_name": "https://nhbturing1.psiturkdncl.online/static/responses_wordassoc/110_a_3.html", "phase": "TEST", "response_gender": "NA", "response_speaker": "machine", "groundtruth": "human", "machine_groundtruth": ""}}, "Trial_Word_150": {"workerID": "A3PYB8Z6FFWSOV", "workerData": {"country": "United States", "age": "31-35", "engagement": "5", "difficulty": "5", "mode": "live", "gender": "female", "education": "bachelor", "ai-experience": "1", "condition": 0, "native": "yes"}, "trialData": {"rt": 2491, "Aclass": "Machine", "trial": 75, "page_name": "https://nhbturing1.psiturkdncl.online/static/responses_wordassoc/96_a_3.html", "phase": "TEST", "response_gender": "NA", "response_speaker": "machine", "groundtruth": "human", "machine_groundtruth": ""}}, "Trial_Word_151": {"workerID": "A3PYB8Z6FFWSOV", "workerData": {"country": "United States", "age": "31-35", "engagement": "5", "difficulty": "5", "mode": "live", "gender": "female", "education": "bachelor", "ai-experience": "1", "condition": 0, "native": "yes"}, "trialData": {"rt": 2282, "Aclass": "Machine", "trial": 76, "page_name": "https://nhbturing1.psiturkdncl.online/static/responses_wordassoc/138_a_1.html", "phase": "TEST", "response_gender": "NA", "response_speaker": "machine", "groundtruth": "human", "machine_groundtruth": ""}}, "Trial_Word_152": {"workerID": "A3PYB8Z6FFWSOV", "workerData": {"country": "United States", "age": "31-35", "engagement": "5", "difficulty": "5", "mode": "live", "gender": "female", "education": "bachelor", "ai-experience": "1", "condition": 0, "native": "yes"}, "trialData": {"rt": 2665, "Aclass": "Machine", "trial": 77, "page_name": "https://nhbturing1.psiturkdncl.online/static/responses_wordassoc/32_d_0.html", "phase": "TEST", "response_gender": "NA", "response_speaker": "machine", "groundtruth": "machine", "machine_groundtruth": "GPT3(Emb)"}}, "Trial_Word_153": {"workerID": "A3PYB8Z6FFWSOV", "workerData": {"country": "United States", "age": "31-35", "engagement": "5", "difficulty": "5", "mode": "live", "gender": "female", "education": "bachelor", "ai-experience": "1", "condition": 0, "native": "yes"}, "trialData": {"rt": 2799, "Aclass": "Machine", "trial": 78, "page_name": "https://nhbturing1.psiturkdncl.online/static/responses_wordassoc/60_b_0.html", "phase": "TEST", "response_gender": "NA", "response_speaker": "machine", "groundtruth": "machine", "machine_groundtruth": "Word2Vec"}}, "Trial_Word_154": {"workerID": "A3PYB8Z6FFWSOV", "workerData": {"country": "United States", "age": "31-35", "engagement": "5", "difficulty": "5", "mode": "live", "gender": "female", "education": "bachelor", "ai-experience": "1", "condition": 0, "native": "yes"}, "trialData": {"rt": 2899, "Aclass": "Machine", "trial": 79, "page_name": "https://nhbturing1.psiturkdncl.online/static/responses_wordassoc/69_a_1.html", "phase": "TEST", "response_gender": "NA", "response_speaker": "machine", "groundtruth": "human", "machine_groundtruth": ""}}, "Trial_Word_155": {"workerID": "A3PYB8Z6FFWSOV", "workerData": {"country": "United States", "age": "31-35", "engagement": "5", "difficulty": "5", "mode": "live", "gender": "female", "education": "bachelor", "ai-experience": "1", "condition": 0, "native": "yes"}, "trialData": {"rt": 2573, "Aclass": "Machine", "trial": 80, "page_name": "https://nhbturing1.psiturkdncl.online/static/responses_wordassoc/31_c_0.html", "phase": "TEST", "response_gender": "NA", "response_speaker": "machine", "groundtruth": "machine", "machine_groundtruth": "GPT2"}}, "Trial_Word_156": {"workerID": "A3PYB8Z6FFWSOV", "workerData": {"country": "United States", "age": "31-35", "engagement": "5", "difficulty": "5", "mode": "live", "gender": "female", "education": "bachelor", "ai-experience": "1", "condition": 0, "native": "yes"}, "trialData": {"rt": 3638, "Aclass": "Human", "trial": 81, "page_name": "https://nhbturing1.psiturkdncl.online/static/responses_wordassoc/14_a_2.html", "phase": "TEST", "response_gender": "NA", "response_speaker": "human", "groundtruth": "human", "machine_groundtruth": ""}}, "Trial_Word_157": {"workerID": "A3PYB8Z6FFWSOV", "workerData": {"country": "United States", "age": "31-35", "engagement": "5", "difficulty": "5", "mode": "live", "gender": "female", "education": "bachelor", "ai-experience": "1", "condition": 0, "native": "yes"}, "trialData": {"rt": 3657, "Aclass": "Machine", "trial": 84, "page_name": "https://nhbturing1.psiturkdncl.online/static/responses_wordassoc/53_e_0.html", "phase": "TEST", "response_gender": "NA", "response_speaker": "machine", "groundtruth": "machine", "machine_groundtruth": "GPT3(pr, Curie)"}}, "Trial_Word_158": {"workerID": "A3PYB8Z6FFWSOV", "workerData": {"country": "United States", "age": "31-35", "engagement": "5", "difficulty": "5", "mode": "live", "gender": "female", "education": "bachelor", "ai-experience": "1", "condition": 0, "native": "yes"}, "trialData": {"rt": 2997, "Aclass": "Machine", "trial": 85, "page_name": "https://nhbturing1.psiturkdncl.online/static/responses_wordassoc/31_d_0.html", "phase": "TEST", "response_gender": "NA", "response_speaker": "machine", "groundtruth": "machine", "machine_groundtruth": "GPT3(Emb)"}}, "Trial_Word_159": {"workerID": "A3PYB8Z6FFWSOV", "workerData": {"country": "United States", "age": "31-35", "engagement": "5", "difficulty": "5", "mode": "live", "gender": "female", "education": "bachelor", "ai-experience": "1", "condition": 0, "native": "yes"}, "trialData": {"rt": 2913, "Aclass": "Machine", "trial": 86, "page_name": "https://nhbturing1.psiturkdncl.online/static/responses_wordassoc/2_a_2.html", "phase": "TEST", "response_gender": "NA", "response_speaker": "machine", "groundtruth": "human", "machine_groundtruth": ""}}, "Trial_Word_160": {"workerID": "A3PYB8Z6FFWSOV", "workerData": {"country": "United States", "age": "31-35", "engagement": "5", "difficulty": "5", "mode": "live", "gender": "female", "education": "bachelor", "ai-experience": "1", "condition": 0, "native": "yes"}, "trialData": {"rt": 4225, "Aclass": "Human", "trial": 89, "page_name": "https://nhbturing1.psiturkdncl.online/static/responses_wordassoc/36_a_3.html", "phase": "TEST", "response_gender": "NA", "response_speaker": "human", "groundtruth": "human", "machine_groundtruth": ""}}, "Trial_Word_161": {"workerID": "A1FVXS8IM5QYO8", "workerData": {"country": "United States", "age": "51", "engagement": "10", "difficulty": "7", "mode": "live", "gender": "female", "education": "high school", "ai-experience": "1", "condition": 0, "native": "yes"}, "trialData": {"rt": 3794, "Aclass": "Human", "hit": "91_a_0.html", "trial": 41, "page_name": "https://nhbturing1.psiturkdncl.online/static/responses_wordassoc/131_a_0.html", "phase": "TEST", "response_gender": "NA", "response_speaker": "human", "groundtruth": "human", "machine_groundtruth": ""}}, "Trial_Word_162": {"workerID": "A1FVXS8IM5QYO8", "workerData": {"country": "United States", "age": "51", "engagement": "10", "difficulty": "7", "mode": "live", "gender": "female", "education": "high school", "ai-experience": "1", "condition": 0, "native": "yes"}, "trialData": {"rt": 2993, "Aclass": "Human", "hit": "65_d_0.html", "trial": 43, "page_name": "https://nhbturing1.psiturkdncl.online/static/responses_wordassoc/61_c_0.html", "phase": "TEST", "response_gender": "NA", "response_speaker": "human", "groundtruth": "machine", "machine_groundtruth": "GPT2"}}, "Trial_Word_163": {"workerID": "A1FVXS8IM5QYO8", "workerData": {"country": "United States", "age": "51", "engagement": "10", "difficulty": "7", "mode": "live", "gender": "female", "education": "high school", "ai-experience": "1", "condition": 0, "native": "yes"}, "trialData": {"rt": 3450, "Aclass": "Machine", "hit": "34_d_0.html", "trial": 44, "page_name": "https://nhbturing1.psiturkdncl.online/static/responses_wordassoc/63_a_0.html", "phase": "TEST", "response_gender": "NA", "response_speaker": "machine", "groundtruth": "human", "machine_groundtruth": ""}}, "Trial_Word_164": {"workerID": "A1FVXS8IM5QYO8", "workerData": {"country": "United States", "age": "51", "engagement": "10", "difficulty": "7", "mode": "live", "gender": "female", "education": "high school", "ai-experience": "1", "condition": 0, "native": "yes"}, "trialData": {"rt": 4260, "Aclass": "Machine", "hit": "52_a_0.html", "trial": 45, "page_name": "https://nhbturing1.psiturkdncl.online/static/responses_wordassoc/53_a_4.html", "phase": "TEST", "response_gender": "NA", "response_speaker": "machine", "groundtruth": "human", "machine_groundtruth": ""}}, "Trial_Word_165": {"workerID": "A1FVXS8IM5QYO8", "workerData": {"country": "United States", "age": "51", "engagement": "10", "difficulty": "7", "mode": "live", "gender": "female", "education": "high school", "ai-experience": "1", "condition": 0, "native": "yes"}, "trialData": {"rt": 4735, "Aclass": "Human", "trial": 47, "page_name": "https://nhbturing1.psiturkdncl.online/static/responses_wordassoc/75_d_0.html", "phase": "TEST", "response_gender": "NA", "response_speaker": "human", "groundtruth": "machine", "machine_groundtruth": "GPT3(Emb)"}}, "Trial_Word_166": {"workerID": "A1FVXS8IM5QYO8", "workerData": {"country": "United States", "age": "51", "engagement": "10", "difficulty": "7", "mode": "live", "gender": "female", "education": "high school", "ai-experience": "1", "condition": 0, "native": "yes"}, "trialData": {"rt": 3466, "Aclass": "Human", "trial": 48, "page_name": "https://nhbturing1.psiturkdncl.online/static/responses_wordassoc/65_a_4.html", "phase": "TEST", "response_gender": "NA", "response_speaker": "human", "groundtruth": "human", "machine_groundtruth": ""}}, "Trial_Word_167": {"workerID": "A1FVXS8IM5QYO8", "workerData": {"country": "United States", "age": "51", "engagement": "10", "difficulty": "7", "mode": "live", "gender": "female", "education": "high school", "ai-experience": "1", "condition": 0, "native": "yes"}, "trialData": {"rt": 3475, "Aclass": "Machine", "trial": 49, "page_name": "https://nhbturing1.psiturkdncl.online/static/responses_wordassoc/32_a_2.html", "phase": "TEST", "response_gender": "NA", "response_speaker": "machine", "groundtruth": "human", "machine_groundtruth": ""}}, "Trial_Word_168": {"workerID": "A1FVXS8IM5QYO8", "workerData": {"country": "United States", "age": "51", "engagement": "10", "difficulty": "7", "mode": "live", "gender": "female", "education": "high school", "ai-experience": "1", "condition": 0, "native": "yes"}, "trialData": {"rt": 3329, "Aclass": "Machine", "trial": 50, "page_name": "https://nhbturing1.psiturkdncl.online/static/responses_wordassoc/132_a_0.html", "phase": "TEST", "response_gender": "NA", "response_speaker": "machine", "groundtruth": "human", "machine_groundtruth": ""}}, "Trial_Word_169": {"workerID": "A1FVXS8IM5QYO8", "workerData": {"country": "United States", "age": "51", "engagement": "10", "difficulty": "7", "mode": "live", "gender": "female", "education": "high school", "ai-experience": "1", "condition": 0, "native": "yes"}, "trialData": {"rt": 3176, "Aclass": "Human", "trial": 52, "page_name": "https://nhbturing1.psiturkdncl.online/static/responses_wordassoc/61_a_0.html", "phase": "TEST", "response_gender": "NA", "response_speaker": "human", "groundtruth": "human", "machine_groundtruth": ""}}, "Trial_Word_170": {"workerID": "A1FVXS8IM5QYO8", "workerData": {"country": "United States", "age": "51", "engagement": "10", "difficulty": "7", "mode": "live", "gender": "female", "education": "high school", "ai-experience": "1", "condition": 0, "native": "yes"}, "trialData": {"rt": 4037, "Aclass": "Machine", "trial": 53, "page_name": "https://nhbturing1.psiturkdncl.online/static/responses_wordassoc/119_a_0.html", "phase": "TEST", "response_gender": "NA", "response_speaker": "machine", "groundtruth": "human", "machine_groundtruth": ""}}, "Trial_Word_171": {"workerID": "A1FVXS8IM5QYO8", "workerData": {"country": "United States", "age": "51", "engagement": "10", "difficulty": "7", "mode": "live", "gender": "female", "education": "high school", "ai-experience": "1", "condition": 0, "native": "yes"}, "trialData": {"rt": 3346, "Aclass": "Human", "trial": 54, "page_name": "https://nhbturing1.psiturkdncl.online/static/responses_wordassoc/110_c_0.html", "phase": "TEST", "response_gender": "NA", "response_speaker": "human", "groundtruth": "machine", "machine_groundtruth": "GPT2"}}, "Trial_Word_172": {"workerID": "A1FVXS8IM5QYO8", "workerData": {"country": "United States", "age": "51", "engagement": "10", "difficulty": "7", "mode": "live", "gender": "female", "education": "high school", "ai-experience": "1", "condition": 0, "native": "yes"}, "trialData": {"rt": 3459, "Aclass": "Human", "trial": 56, "page_name": "https://nhbturing1.psiturkdncl.online/static/responses_wordassoc/127_a_4.html", "phase": "TEST", "response_gender": "NA", "response_speaker": "human", "groundtruth": "human", "machine_groundtruth": ""}}, "Trial_Word_173": {"workerID": "A1FVXS8IM5QYO8", "workerData": {"country": "United States", "age": "51", "engagement": "10", "difficulty": "7", "mode": "live", "gender": "female", "education": "high school", "ai-experience": "1", "condition": 0, "native": "yes"}, "trialData": {"rt": 4772, "Aclass": "Machine", "trial": 57, "page_name": "https://nhbturing1.psiturkdncl.online/static/responses_wordassoc/133_e_0.html", "phase": "TEST", "response_gender": "NA", "response_speaker": "machine", "groundtruth": "machine", "machine_groundtruth": "GPT3(pr, Curie)"}}, "Trial_Word_174": {"workerID": "A1FVXS8IM5QYO8", "workerData": {"country": "United States", "age": "51", "engagement": "10", "difficulty": "7", "mode": "live", "gender": "female", "education": "high school", "ai-experience": "1", "condition": 0, "native": "yes"}, "trialData": {"rt": 4084, "Aclass": "Human", "trial": 58, "page_name": "https://nhbturing1.psiturkdncl.online/static/responses_wordassoc/21_f_0.html", "phase": "TEST", "response_gender": "NA", "response_speaker": "human", "groundtruth": "machine", "machine_groundtruth": "GPT3(pr, DaVinci)"}}, "Trial_Word_175": {"workerID": "A1FVXS8IM5QYO8", "workerData": {"country": "United States", "age": "51", "engagement": "10", "difficulty": "7", "mode": "live", "gender": "female", "education": "high school", "ai-experience": "1", "condition": 0, "native": "yes"}, "trialData": {"rt": 3972, "Aclass": "Machine", "trial": 59, "page_name": "https://nhbturing1.psiturkdncl.online/static/responses_wordassoc/14_c_0.html", "phase": "TEST", "response_gender": "NA", "response_speaker": "machine", "groundtruth": "machine", "machine_groundtruth": "GPT2"}}, "Trial_Word_176": {"workerID": "A1FVXS8IM5QYO8", "workerData": {"country": "United States", "age": "51", "engagement": "10", "difficulty": "7", "mode": "live", "gender": "female", "education": "high school", "ai-experience": "1", "condition": 0, "native": "yes"}, "trialData": {"rt": 3650, "Aclass": "Machine", "trial": 60, "page_name": "https://nhbturing1.psiturkdncl.online/static/responses_wordassoc/34_a_3.html", "phase": "TEST", "response_gender": "NA", "response_speaker": "machine", "groundtruth": "human", "machine_groundtruth": ""}}, "Trial_Word_177": {"workerID": "A1FVXS8IM5QYO8", "workerData": {"country": "United States", "age": "51", "engagement": "10", "difficulty": "7", "mode": "live", "gender": "female", "education": "high school", "ai-experience": "1", "condition": 0, "native": "yes"}, "trialData": {"rt": 4314, "Aclass": "Machine", "trial": 62, "page_name": "https://nhbturing1.psiturkdncl.online/static/responses_wordassoc/141_f_0.html", "phase": "TEST", "response_gender": "NA", "response_speaker": "machine", "groundtruth": "machine", "machine_groundtruth": "GPT3(pr, DaVinci)"}}, "Trial_Word_178": {"workerID": "A1FVXS8IM5QYO8", "workerData": {"country": "United States", "age": "51", "engagement": "10", "difficulty": "7", "mode": "live", "gender": "female", "education": "high school", "ai-experience": "1", "condition": 0, "native": "yes"}, "trialData": {"rt": 3185, "Aclass": "Machine", "trial": 63, "page_name": "https://nhbturing1.psiturkdncl.online/static/responses_wordassoc/96_a_3.html", "phase": "TEST", "response_gender": "NA", "response_speaker": "machine", "groundtruth": "human", "machine_groundtruth": ""}}, "Trial_Word_179": {"workerID": "A1FVXS8IM5QYO8", "workerData": {"country": "United States", "age": "51", "engagement": "10", "difficulty": "7", "mode": "live", "gender": "female", "education": "high school", "ai-experience": "1", "condition": 0, "native": "yes"}, "trialData": {"rt": 3692, "Aclass": "Machine", "trial": 65, "page_name": "https://nhbturing1.psiturkdncl.online/static/responses_wordassoc/60_a_3.html", "phase": "TEST", "response_gender": "NA", "response_speaker": "machine", "groundtruth": "human", "machine_groundtruth": ""}}, "Trial_Word_180": {"workerID": "A1FVXS8IM5QYO8", "workerData": {"country": "United States", "age": "51", "engagement": "10", "difficulty": "7", "mode": "live", "gender": "female", "education": "high school", "ai-experience": "1", "condition": 0, "native": "yes"}, "trialData": {"rt": 3684, "Aclass": "Human", "trial": 67, "page_name": "https://nhbturing1.psiturkdncl.online/static/responses_wordassoc/83_b_0.html", "phase": "TEST", "response_gender": "NA", "response_speaker": "human", "groundtruth": "machine", "machine_groundtruth": "Word2Vec"}}, "Trial_Word_181": {"workerID": "A1FVXS8IM5QYO8", "workerData": {"country": "United States", "age": "51", "engagement": "10", "difficulty": "7", "mode": "live", "gender": "female", "education": "high school", "ai-experience": "1", "condition": 0, "native": "yes"}, "trialData": {"rt": 4260, "Aclass": "Human", "trial": 68, "page_name": "https://nhbturing1.psiturkdncl.online/static/responses_wordassoc/130_d_0.html", "phase": "TEST", "response_gender": "NA", "response_speaker": "human", "groundtruth": "machine", "machine_groundtruth": "GPT3(Emb)"}}, "Trial_Word_182": {"workerID": "A1FVXS8IM5QYO8", "workerData": {"country": "United States", "age": "51", "engagement": "10", "difficulty": "7", "mode": "live", "gender": "female", "education": "high school", "ai-experience": "1", "condition": 0, "native": "yes"}, "trialData": {"rt": 5215, "Aclass": "Human", "trial": 69, "page_name": "https://nhbturing1.psiturkdncl.online/static/responses_wordassoc/66_a_4.html", "phase": "TEST", "response_gender": "NA", "response_speaker": "human", "groundtruth": "human", "machine_groundtruth": ""}}, "Trial_Word_183": {"workerID": "A1FVXS8IM5QYO8", "workerData": {"country": "United States", "age": "51", "engagement": "10", "difficulty": "7", "mode": "live", "gender": "female", "education": "high school", "ai-experience": "1", "condition": 0, "native": "yes"}, "trialData": {"rt": 3837, "Aclass": "Machine", "trial": 70, "page_name": "https://nhbturing1.psiturkdncl.online/static/responses_wordassoc/145_a_0.h