{"assignmentId": "3B4YI393VAHJOZ7ZVK39ZDEG2GKSSR", "workerId": "A1FZ7GKE3IHCYW", "questiondata": {"country": "Afghanistan", "age": "18-20", "engagement": "10", "difficulty": "10", "mode": "sandbox", "gender": "male", "education": "middle school", "condition": 0, "native": "yes"}, "bonus": 0, "hitId": "3R868ACW4SXBCMMT5AYZI8X0AHHGZX", "counterbalance": 0, "useragent": "Mozilla/5.0 (Macintosh; Intel Mac OS X 10_15_7) AppleWebKit/605.1.15 (KHTML, like Gecko) Version/15.6.1 Safari/605.1.15", "eventdata": [{"eventtype": "initialized", "interval": 0, "value": null, "timestamp": 1666744343353}, {"eventtype": "window_resize", "interval": 0, "value": [1680, 947], "timestamp": 1666744343353}], "data": [{"current_trial": 0, "trialdata": {"phase": "prequestionnaire", "status": "submit"}, "uniqueid": "A1FZ7GKE3IHCYW:3B4YI393VAHJOZ7ZVK39ZDEG2GKSSR", "dateTime": 1666744420711}, {"current_trial": 1, "trialdata": {"rt": 23745, "Aclass": "AI", "hit": "519", "oneWord_curr": "1", "Agender": "F", "imageID": "static/dataset/coco_val_set/519.jpg", "topic": "1", "trial": 1, "page_name": "519_a_0.html/", "phase": "TEST"}, "uniqueid": "A1FZ7GKE3IHCYW:3B4YI393VAHJOZ7ZVK39ZDEG2GKSSR", "dateTime": 1666744451021}, {"current_trial": 2, "trialdata": {"rt": 14787, "Aclass": "AI", "hit": "620", "oneWord_curr": "1", "Agender": "F", "imageID": "static/dataset/coco_val_set/620.jpg", "topic": "2", "trial": 2, "page_name": "620_a_0.html/", "phase": "TEST"}, "uniqueid": "A1FZ7GKE3IHCYW:3B4YI393VAHJOZ7ZVK39ZDEG2GKSSR", "dateTime": 1666744465809}, {"current_trial": 3, "trialdata": {"rt": 10663, "Aclass": "AI", "hit": "905", "oneWord_curr": "0", "Agender": "F", "imageID": "static/dataset/coco_val_set/905.jpg", "topic": "2", "trial": 3, "page_name": "905_a_0.html/", "phase": "TEST"}, "uniqueid": "A1FZ7GKE3IHCYW:3B4YI393VAHJOZ7ZVK39ZDEG2GKSSR", "dateTime": 1666744476472}, {"current_trial": 4, "trialdata": {"rt": 8970, "Aclass": "H", "hit": "902", "oneWord_curr": "1", "Agender": "M", "imageID": "static/dataset/coco_val_set/902.jpg", "topic": "2", "trial": 4, "page_name": "902_d_0.html/", "phase": "TEST"}, "uniqueid": "A1FZ7GKE3IHCYW:3B4YI393VAHJOZ7ZVK39ZDEG2GKSSR", "dateTime": 1666744485443}, {"current_trial": 5, "trialdata": {"rt": 22669, "Aclass": "H", "hit": "393", "oneWord_curr": "0", "Agender": "F", "imageID": "static/dataset/coco_val_set/393.jpg", "topic": "1", "trial": 5, "page_name": "393_c_0.html/", "phase": "TEST"}, "uniqueid": "A1FZ7GKE3IHCYW:3B4YI393VAHJOZ7ZVK39ZDEG2GKSSR", "dateTime": 1666744508112}, {"current_trial": 6, "trialdata": {"rt": 15336, "Aclass": "H", "hit": "215", "oneWord_curr": "0", "Agender": "M", "imageID": "static/dataset/coco_val_set/215.jpg", "topic": "1", "trial": 6, "page_name": "215_c_0.html/", "phase": "TEST"}, "uniqueid": "A1FZ7GKE3IHCYW:3B4YI393VAHJOZ7ZVK39ZDEG2GKSSR", "dateTime": 1666744523449}, {"current_trial": 7, "trialdata": {"rt": 444, "Aclass": "H", "hit": "117", "oneWord_curr": "1", "Agender": "M", "imageID": "static/dataset/coco_val_set/117.jpg", "topic": "1", "trial": 7, "page_name": "117_a_0.html/", "phase": "TEST"}, "uniqueid": "A1FZ7GKE3IHCYW:3B4YI393VAHJOZ7ZVK39ZDEG2GKSSR", "dateTime": 1666744523894}, {"current_trial": 8, "trialdata": {"rt": 194, "Aclass": "H", "hit": "829", "oneWord_curr": "0", "Agender": "M", "imageID": "static/dataset/coco_val_set/829.jpg", "topic": "1", "trial": 8, "page_name": "829_a_0.html/", "phase": "TEST"}, "uniqueid": "A1FZ7GKE3IHCYW:3B4YI393VAHJOZ7ZVK39ZDEG2GKSSR", "dateTime": 1666744524090}, {"current_trial": 9, "trialdata": {"rt": 130, "Aclass": "H", "hit": "1072", "oneWord_curr": "0", "Agender": "M", "imageID": "static/dataset/coco_val_set/1072.jpg", "topic": "1", "trial": 9, "page_name": "1072_b_0.html/", "phase": "TEST"}, "uniqueid": "A1FZ7GKE3IHCYW:3B4YI393VAHJOZ7ZVK39ZDEG2GKSSR", "dateTime": 1666744524221}, {"current_trial": 10, "trialdata": {"rt": 135, "Aclass": "H", "hit": "1017", "oneWord_curr": "0", "Agender": "M", "imageID": "static/dataset/coco_val_set/1017.jpg", "topic": "1", "trial": 10, "page_name": "1017_b_0.html/", "phase": "TEST"}, "uniqueid": "A1FZ7GKE3IHCYW:3B4YI393VAHJOZ7ZVK39ZDEG2GKSSR", "dateTime": 1666744524357}, {"current_trial": 11, "trialdata": {"rt": 139, "Aclass": "H", "hit": "920", "oneWord_curr": "1", "Agender": "M", "imageID": "static/dataset/coco_val_set/920.jpg", "topic": "1", "trial": 11, "page_name": "920_a_0.html/", "phase": "TEST"}, "uniqueid": "A1FZ7GKE3IHCYW:3B4YI393VAHJOZ7ZVK39ZDEG2GKSSR", "dateTime": 1666744524497}, {"current_trial": 12, "trialdata": {"rt": 109, "Aclass": "H", "hit": "351", "oneWord_curr": "0", "Agender": "M", "imageID": "static/dataset/coco_val_set/351.jpg", "topic": "1", "trial": 12, "page_name": "351_a_0.html/", "phase": "TEST"}, "uniqueid": "A1FZ7GKE3IHCYW:3B4YI393VAHJOZ7ZVK39ZDEG2GKSSR", "dateTime": 1666744524607}, {"current_trial": 13, "trialdata": {"rt": 119, "Aclass": "H", "hit": "1151", "oneWord_curr": "1", "Agender": "M", "imageID": "static/dataset/coco_val_set/1151.jpg", "topic": "1", "trial": 13, "page_name": "1151_b_0.html/", "phase": "TEST"}, "uniqueid": "A1FZ7GKE3IHCYW:3B4YI393VAHJOZ7ZVK39ZDEG2GKSSR", "dateTime": 1666744524727}, {"current_trial": 14, "trialdata": {"rt": 146, "Aclass": "H", "hit": "1100", "oneWord_curr": "1", "Agender": "M", "imageID": "static/dataset/coco_val_set/1100.jpg", "topic": "1", "trial": 14, "page_name": "1100_a_0.html/", "phase": "TEST"}, "uniqueid": "A1FZ7GKE3IHCYW:3B4YI393VAHJOZ7ZVK39ZDEG2GKSSR", "dateTime": 1666744524874}, {"current_trial": 15, "trialdata": {"rt": 138, "Aclass": "H", "hit": "18", "oneWord_curr": "0", "Agender": "M", "imageID": "static/dataset/coco_val_set/18.jpg", "topic": "1", "trial": 15, "page_name": "18_a_0.html/", "phase": "TEST"}, "uniqueid": "A1FZ7GKE3IHCYW:3B4YI393VAHJOZ7ZVK39ZDEG2GKSSR", "dateTime": 1666744525012}, {"current_trial": 16, "trialdata": {"rt": 354, "Aclass": "H", "hit": "1000", "oneWord_curr": "0", "Agender": "M", "imageID": "static/dataset/coco_val_set/1000.jpg", "topic": "1", "trial": 16, "page_name": "1000_a_0.html/", "phase": "TEST"}, "uniqueid": "A1FZ7GKE3IHCYW:3B4YI393VAHJOZ7ZVK39ZDEG2GKSSR", "dateTime": 1666744525367}, {"current_trial": 17, "trialdata": {"rt": 152, "Aclass": "H", "hit": "901", "oneWord_curr": "0", "Agender": "M", "imageID": "static/dataset/coco_val_set/901.jpg", "topic": "1", "trial": 17, "page_name": "901_d_0.html/", "phase": "TEST"}, "uniqueid": "A1FZ7GKE3IHCYW:3B4YI393VAHJOZ7ZVK39ZDEG2GKSSR", "dateTime": 1666744525519}, {"current_trial": 18, "trialdata": {"rt": 127, "Aclass": "H", "hit": "1070", "oneWord_curr": "0", "Agender": "M", "imageID": "static/dataset/coco_val_set/1070.jpg", "topic": "1", "trial": 18, "page_name": "1070_a_0.html/", "phase": "TEST"}, "uniqueid": "A1FZ7GKE3IHCYW:3B4YI393VAHJOZ7ZVK39ZDEG2GKSSR", "dateTime": 1666744525647}, {"current_trial": 19, "trialdata": {"rt": 120, "Aclass": "H", "hit": "294", "oneWord_curr": "0", "Agender": "M", "imageID": "static/dataset/coco_val_set/294.jpg", "topic": "1", "trial": 19, "page_name": "294_c_0.html/", "phase": "TEST"}, "uniqueid": "A1FZ7GKE3IHCYW:3B4YI393VAHJOZ7ZVK39ZDEG2GKSSR", "dateTime": 1666744525768}, {"current_trial": 20, "trialdata": {"rt": 154, "Aclass": "H", "hit": "601", "oneWord_curr": "1", "Agender": "M", "imageID": "static/dataset/coco_val_set/601.jpg", "topic": "1", "trial": 20, "page_name": "601_d_0.html/", "phase": "TEST"}, "uniqueid": "A1FZ7GKE3IHCYW:3B4YI393VAHJOZ7ZVK39ZDEG2GKSSR", "dateTime": 1666744525922}, {"current_trial": 21, "trialdata": {"rt": 136, "Aclass": "H", "hit": "762", "oneWord_curr": "1", "Agender": "M", "imageID": "static/dataset/coco_val_set/762.jpg", "topic": "1", "trial": 21, "page_name": "762_a_0.html/", "phase": "TEST"}, "uniqueid": "A1FZ7GKE3IHCYW:3B4YI393VAHJOZ7ZVK39ZDEG2GKSSR", "dateTime": 1666744526059}, {"current_trial": 22, "trialdata": {"rt": 153, "Aclass": "H", "hit": "221", "oneWord_curr": "1", "Agender": "M", "imageID": "static/dataset/coco_val_set/221.jpg", "topic": "1", "trial": 22, "page_name": "221_a_0.html/", "phase": "TEST"}, "uniqueid": "A1FZ7GKE3IHCYW:3B4YI393VAHJOZ7ZVK39ZDEG2GKSSR", "dateTime": 1666744526213}, {"current_trial": 23, "trialdata": {"rt": 109, "Aclass": "H", "hit": "805", "oneWord_curr": "1", "Agender": "M", "imageID": "static/dataset/coco_val_set/805.jpg", "topic": "1", "trial": 23, "page_name": "805_a_0.html/", "phase": "TEST"}, "uniqueid": "A1FZ7GKE3IHCYW:3B4YI393VAHJOZ7ZVK39ZDEG2GKSSR", "dateTime": 1666744526323}, {"current_trial": 24, "trialdata": {"rt": 128, "Aclass": "H", "hit": "1140", "oneWord_curr": "1", "Agender": "M", "imageID": "static/dataset/coco_val_set/1140.jpg", "topic": "1", "trial": 24, "page_name": "1140_a_0.html/", "phase": "TEST"}, "uniqueid": "A1FZ7GKE3IHCYW:3B4YI393VAHJOZ7ZVK39ZDEG2GKSSR", "dateTime": 1666744526452}, {"current_trial": 25, "trialdata": {"rt": 161, "Aclass": "H", "hit": "253", "oneWord_curr": "0", "Agender": "M", "imageID": "static/dataset/coco_val_set/253.jpg", "topic": "1", "trial": 25, "page_name": "253_a_0.html/", "phase": "TEST"}, "uniqueid": "A1FZ7GKE3IHCYW:3B4YI393VAHJOZ7ZVK39ZDEG2GKSSR", "dateTime": 1666744526614}, {"current_trial": 26, "trialdata": {"phase": "postquestionnaire", "status": "begin"}, "uniqueid": "A1FZ7GKE3IHCYW:3B4YI393VAHJOZ7ZVK39ZDEG2GKSSR", "dateTime": 1666744526615}, {"current_trial": 27, "trialdata": {"phase": "postquestionnaire", "status": "submit"}, "uniqueid": "A1FZ7GKE3IHCYW:3B4YI393VAHJOZ7ZVK39ZDEG2GKSSR", "dateTime": 1666744531137}], "currenttrial": 28, "condition": 0, "mode": "sandbox"}