{"AIexperts": {"Trial_1": {"workerID": "debugnQiAs", "workerData": {"native": "no", "age": "21-25", "gender": "male", "education": "master", "country": "India", "mode": "debug", "condition": 0, "engagement": "5", "difficulty": "5"}, "trialData": {"rt": 11843, "hit": "923", "trial": 1, "response_speaker": "human", "machine_groundtruth": "", "imageID": "static/dataset/coco_val_set/923.jpg", "page_name": "923_a_0.html/", "counterbalance": 0, "groundtruth": "human", "human_groundtruth": "human", "response_gender": "male"}}, "Trial_2": {"workerID": "debugnQiAs", "workerData": {"native": "no", "age": "21-25", "gender": "male", "education": "master", "country": "India", "mode": "debug", "condition": 0, "engagement": "5", "difficulty": "5"}, "trialData": {"rt": 25646, "hit": "572", "trial": 2, "response_speaker": "human", "machine_groundtruth": "", "imageID": "static/dataset/coco_val_set/572.jpg", "page_name": "572_a_0.html/", "counterbalance": 0, "groundtruth": "human", "human_groundtruth": "human", "response_gender": "male"}}, "Trial_3": {"workerID": "debugnQiAs", "workerData": {"native": "no", "age": "21-25", "gender": "male", "education": "master", "country": "India", "mode": "debug", "condition": 0, "engagement": "5", "difficulty": "5"}, "trialData": {"rt": 13564, "hit": "138", "trial": 3, "response_speaker": "machine", "machine_groundtruth": "", "imageID": "static/dataset/coco_val_set/138.jpg", "page_name": "138_a_0.html/", "counterbalance": 0, "groundtruth": "human", "human_groundtruth": "human", "response_gender": "male"}}, "Trial_4": {"workerID": "debugnQiAs", "workerData": {"native": "no", "age": "21-25", "gender": "male", "education": "master", "country": "India", "mode": "debug", "condition": 0, "engagement": "5", "difficulty": "5"}, "trialData": {"rt": 5964, "hit": "664", "trial": 4, "response_speaker": "human", "machine_groundtruth": "mccq", "imageID": "static/dataset/coco_val_set/664.jpg", "page_name": "664_c_0.html/", "counterbalance": 0, "groundtruth": "machine", "human_groundtruth": "", "response_gender": "male"}}, "Trial_5": {"workerID": "debugnQiAs", "workerData": {"native": "no", "age": "21-25", "gender": "male", "education": "master", "country": "India", "mode": "debug", "condition": 0, "engagement": "5", "difficulty": "5"}, "trialData": {"rt": 8232, "hit": "304", "trial": 5, "response_speaker": "machine", "machine_groundtruth": "azure", "imageID": "static/dataset/coco_val_set/304.jpg", "page_name": "304_b_0.html/", "counterbalance": 0, "groundtruth": "machine", "human_groundtruth": "", "response_gender": "male"}}, "Trial_6": {"workerID": "debugnQiAs", "workerData": {"native": "no", "age": "21-25", "gender": "male", "education": "master", "country": "India", "mode": "debug", "condition": 0, "engagement": "5", "difficulty": "5"}, "trialData": {"rt": 5833, "hit": "308", "trial": 6, "response_speaker": "machine", "machine_groundtruth": "mccq", "imageID": "static/dataset/coco_val_set/308.jpg", "page_name": "308_c_0.html/", "counterbalance": 0, "groundtruth": "machine", "human_groundtruth": "", "response_gender": "male"}}, "Trial_7": {"workerID": "debugnQiAs", "workerData": {"native": "no", "age": "21-25", "gender": "male", "education": "master", "country": "India", "mode": "debug", "condition": 0, "engagement": "5", "difficulty": "5"}, "trialData": {"rt": 6583, "hit": "615", "trial": 7, "response_speaker": "machine", "machine_groundtruth": "", "imageID": "static/dataset/coco_val_set/615.jpg", "page_name": "615_a_0.html/", "counterbalance": 0, "groundtruth": "human", "human_groundtruth": "human", "response_gender": "male"}}, "Trial_8": {"workerID": "debugnQiAs", "workerData": {"native": "no", "age": "21-25", "gender": "male", "education": "master", "country": "India", "mode": "debug", "condition": 0, "engagement": "5", "difficulty": "5"}, "trialData": {"rt": 11062, "hit": "1040", "trial": 8, "response_speaker": "machine", "machine_groundtruth": "", "imageID": "static/dataset/coco_val_set/1040.jpg", "page_name": "1040_a_0.html/", "counterbalance": 0, "groundtruth": "human", "human_groundtruth": "human", "response_gender": "male"}}, "Trial_9": {"workerID": "debugnQiAs", "workerData": {"native": "no", "age": "21-25", "gender": "male", "education": "master", "country": "India", "mode": "debug", "condition": 0, "engagement": "5", "difficulty": "5"}, "trialData": {"rt": 8712, "hit": "1048", "trial": 9, "response_speaker": "machine", "machine_groundtruth": "google", "imageID": "static/dataset/coco_val_set/1048.jpg", "page_name": "1048_d_0.html/", "counterbalance": 0, "groundtruth": "machine", "human_groundtruth": "", "response_gender": "male"}}, "Trial_10": {"workerID": "debugnQiAs", "workerData": {"native": "no", "age": "21-25", "gender": "male", "education": "master", "country": "India", "mode": "debug", "condition": 0, "engagement": "5", "difficulty": "5"}, "trialData": {"rt": 9814, "hit": "497", "trial": 10, "response_speaker": "machine", "machine_groundtruth": "google", "imageID": "static/dataset/coco_val_set/497.jpg", "page_name": "497_d_0.html/", "counterbalance": 0, "groundtruth": "machine", "human_groundtruth": "", "response_gender": "male"}}, "Trial_11": {"workerID": "debugnQiAs", "workerData": {"native": "no", "age": "21-25", "gender": "male", "education": "master", "country": "India", "mode": "debug", "condition": 0, "engagement": "5", "difficulty": "5"}, "trialData": {"rt": 10630, "hit": "1188", "trial": 11, "response_speaker": "human", "machine_groundtruth": "", "imageID": "static/dataset/coco_val_set/1188.jpg", "page_name": "1188_a_0.html/", "counterbalance": 0, "groundtruth": "human", "human_groundtruth": "human", "response_gender": "male"}}, "Trial_12": {"workerID": "debugnQiAs", "workerData": {"native": "no", "age": "21-25", "gender": "male", "education": "master", "country": "India", "mode": "debug", "condition": 0, "engagement": "5", "difficulty": "5"}, "trialData": {"rt": 5560, "hit": "841", "trial": 12, "response_speaker": "machine", "machine_groundtruth": "google", "imageID": "static/dataset/coco_val_set/841.jpg", "page_name": "841_d_0.html/", "counterbalance": 0, "groundtruth": "machine", "human_groundtruth": "", "response_gender": "male"}}, "Trial_13": {"workerID": "debugnQiAs", "workerData": {"native": "no", "age": "21-25", "gender": "male", "education": "master", "country": "India", "mode": "debug", "condition": 0, "engagement": "5", "difficulty": "5"}, "trialData": {"rt": 4617, "hit": "889", "trial": 13, "response_speaker": "machine", "machine_groundtruth": "azure", "imageID": "static/dataset/coco_val_set/889.jpg", "page_name": "889_b_0.html/", "counterbalance": 0, "groundtruth": "machine", "human_groundtruth": "", "response_gender": "male"}}, "Trial_14": {"workerID": "debugnQiAs", "workerData": {"native": "no", "age": "21-25", "gender": "male", "education": "master", "country": "India", "mode": "debug", "condition": 0, "engagement": "5", "difficulty": "5"}, "trialData": {"rt": 7547, "hit": "960", "trial": 14, "response_speaker": "machine", "machine_groundtruth": "", "imageID": "static/dataset/coco_val_set/960.jpg", "page_name": "960_a_0.html/", "counterbalance": 0, "groundtruth": "human", "human_groundtruth": "human", "response_gender": "female"}}, "Trial_15": {"workerID": "debugnQiAs", "workerData": {"native": "no", "age": "21-25", "gender": "male", "education": "master", "country": "India", "mode": "debug", "condition": 0, "engagement": "5", "difficulty": "5"}, "trialData": {"rt": 6799, "hit": "160", "trial": 15, "response_speaker": "machine", "machine_groundtruth": "", "imageID": "static/dataset/coco_val_set/160.jpg", "page_name": "160_a_0.html/", "counterbalance": 0, "groundtruth": "human", "human_groundtruth": "human", "response_gender": "female"}}, "Trial_16": {"workerID": "debugnQiAs", "workerData": {"native": "no", "age": "21-25", "gender": "male", "education": "master", "country": "India", "mode": "debug", "condition": 0, "engagement": "5", "difficulty": "5"}, "trialData": {"rt": 7197, "hit": "77", "trial": 16, "response_speaker": "human", "machine_groundtruth": "", "imageID": "static/dataset/coco_val_set/77.jpg", "page_name": "77_a_0.html/", "counterbalance": 0, "groundtruth": "human", "human_groundtruth": "human", "response_gender": "male"}}, "Trial_17": {"workerID": "debugnQiAs", "workerData": {"native": "no", "age": "21-25", "gender": "male", "education": "master", "country": "India", "mode": "debug", "condition": 0, "engagement": "5", "difficulty": "5"}, "trialData": {"rt": 8763, "hit": "827", "trial": 17, "response_speaker": "human", "machine_groundtruth": "", "imageID": "static/dataset/coco_val_set/827.jpg", "page_name": "827_a_0.html/", "counterbalance": 0, "groundtruth": "human", "human_groundtruth": "human", "response_gender": "male"}}, "Trial_21": {"workerID": "debugnQiAs", "workerData": {"native": "no", "age": "21-25", "gender": "male", "education": "master", "country": "India", "mode": "debug", "condition": 0, "engagement": "5", "difficulty": "5"}, "trialData": {"rt": 14215, "hit": "23", "trial": 21, "response_speaker": "human", "machine_groundtruth": "", "imageID": "static/dataset/coco_val_set/23.jpg", "page_name": "23_a_0.html/", "counterbalance": 0, "groundtruth": "human", "human_groundtruth": "human", "response_gender": "male"}}, "Trial_22": {"workerID": "debugnQiAs", "workerData": {"native": "no", "age": "21-25", "gender": "male", "education": "master", "country": "India", "mode": "debug", "condition": 0, "engagement": "5", "difficulty": "5"}, "trialData": {"rt": 7365, "hit": "365", "trial": 22, "response_speaker": "machine", "machine_groundtruth": "google", "imageID": "static/dataset/coco_val_set/365.jpg", "page_name": "365_d_0.html/", "counterbalance": 0, "groundtruth": "machine", "human_groundtruth": "", "response_gender": "male"}}, "Trial_24": {"workerID": "debugnQiAs", "workerData": {"native": "no", "age": "21-25", "gender": "male", "education": "master", "country": "India", "mode": "debug", "condition": 0, "engagement": "5", "difficulty": "5"}, "trialData": {"rt": 4772, "hit": "528", "trial": 24, "response_speaker": "human", "machine_groundtruth": "google", "imageID": "static/dataset/coco_val_set/528.jpg", "page_name": "528_d_0.html/", "counterbalance": 0, "groundtruth": "machine", "human_groundtruth": "", "response_gender": "male"}}, "Trial_25": {"workerID": "debugnQiAs", "workerData": {"native": "no", "age": "21-25", "gender": "male", "education": "master", "country": "India", "mode": "debug", "condition": 0, "engagement": "5", "difficulty": "5"}, "trialData": {"rt": 6398, "hit": "919", "trial": 25, "response_speaker": "machine", "machine_groundtruth": "", "imageID": "static/dataset/coco_val_set/919.jpg", "page_name": "919_a_0.html/", "counterbalance": 0, "groundtruth": "human", "human_groundtruth": "human", "response_gender": "male"}}, "Trial_26": {"workerID": "debugnQiAs", "workerData": {"native": "no", "age": "21-25", "gender": "male", "education": "master", "country": "India", "mode": "debug", "condition": 0, "engagement": "5", "difficulty": "5"}, "trialData": {"rt": 4714, "hit": "424", "trial": 26, "response_speaker": "machine", "machine_groundtruth": "", "imageID": "static/dataset/coco_val_set/424.jpg", "page_name": "424_a_0.html/", "counterbalance": 0, "groundtruth": "human", "human_groundtruth": "human", "response_gender": "male"}}, "Trial_31": {"workerID": "debugnQiAs", "workerData": {"native": "no", "age": "21-25", "gender": "male", "education": "master", "country": "India", "mode": "debug", "condition": 0, "engagement": "5", "difficulty": "5"}, "trialData": {"rt": 4346, "hit": "915", "trial": 31, "response_speaker": "machine", "machine_groundtruth": "azure", "imageID": "static/dataset/coco_val_set/915.jpg", "page_name": "915_b_0.html/", "counterbalance": 0, "groundtruth": "machine", "human_groundtruth": "", "response_gender": "male"}}, "Trial_32": {"workerID": "debugnQiAs", "workerData": {"native": "no", "age": "21-25", "gender": "male", "education": "master", "country": "India", "mode": "debug", "condition": 0, "engagement": "5", "difficulty": "5"}, "trialData": {"rt": 4031, "hit": "1027", "trial": 32, "response_speaker": "machine", "machine_groundtruth": "mccq", "imageID": "static/dataset/coco_val_set/1027.jpg", "page_name": "1027_c_0.html/", "counterbalance": 0, "groundtruth": "machine", "human_groundtruth": "", "response_gender": "male"}}, "Trial_34": {"workerID": "debugnQiAs", "workerData": {"native": "no", "age": "21-25", "gender": "male", "education": "master", "country": "India", "mode": "debug", "condition": 0, "engagement": "5", "difficulty": "5"}, "trialData": {"rt": 3430, "hit": "1051", "trial": 34, "response_speaker": "machine", "machine_groundtruth": "google", "imageID": "static/dataset/coco_val_set/1051.jpg", "page_name": "1051_d_0.html/", "counterbalance": 0, "groundtruth": "machine", "human_groundtruth": "", "response_gender": "male"}}, "Trial_35": {"workerID": "debugnQiAs", "workerData": {"native": "no", "age": "21-25", "gender": "male", "education": "master", "country": "India", "mode": "debug", "condition": 0, "engagement": "5", "difficulty": "5"}, "trialData": {"rt": 7864, "hit": "569", "trial": 35, "response_speaker": "machine", "machine_groundtruth": "azure", "imageID": "static/dataset/coco_val_set/569.jpg", "page_name": "569_b_0.html/", "counterbalance": 0, "groundtruth": "machine", "human_groundtruth": "", "response_gender": "male"}}, "Trial_36": {"workerID": "debugnQiAs", "workerData": {"native": "no", "age": "21-25", "gender": "male", "education": "master", "country": "India", "mode": "debug", "condition": 0, "engagement": "5", "difficulty": "5"}, "trialData": {"rt": 7498, "hit": "877", "trial": 36, "response_speaker": "machine", "machine_groundtruth": "azure", "imageID": "static/dataset/coco_val_set/877.jpg", "page_name": "877_b_0.html/", "counterbalance": 0, "groundtruth": "machine", "human_groundtruth": "", "response_gender": "male"}}, "Trial_38": {"workerID": "debugnQiAs", "workerData": {"native": "no", "age": "21-25", "gender": "male", "education": "master", "country": "India", "mode": "debug", "condition": 0, "engagement": "5", "difficulty": "5"}, "trialData": {"rt": 4681, "hit": "429", "trial": 38, "response_speaker": "machine", "machine_groundtruth": "mccq", "imageID": "static/dataset/coco_val_set/429.jpg", "page_name": "429_c_0.html/", "counterbalance": 0, "groundtruth": "machine", "human_groundtruth": "", "response_gender": "male"}}, "Trial_40": {"workerID": "debugnQiAs", "workerData": {"native": "no", "age": "21-25", "gender": "male", "education": "master", "country": "India", "mode": "debug", "condition": 0, "engagement": "5", "difficulty": "5"}, "trialData": {"rt": 5330, "hit": "279", "trial": 40, "response_speaker": "human", "machine_groundtruth": "", "imageID": "static/dataset/coco_val_set/279.jpg", "page_name": "279_a_0.html/", "counterbalance": 0, "groundtruth": "human", "human_groundtruth": "human", "response_gender": "male"}}, "Trial_41": {"workerID": "debugHfdiz", "workerData": {"native": "no", "age": "26-30", "gender": "male", "education": "master", "country": "Pakistan", "mode": "debug", "condition": 0, "engagement": "5", "difficulty": "8"}, "trialData": {"rt": 19643, "hit": "954", "trial": 1, "response_speaker": "machine", "machine_groundtruth": "", "imageID": "static/dataset/coco_val_set/954.jpg", "page_name": "954_a_0.html/", "counterbalance": 0, "groundtruth": "human", "human_groundtruth": "human", "response_gender": "female"}}, "Trial_42": {"workerID": "debugHfdiz", "workerData": {"native": "no", "age": "26-30", "gender": "male", "education": "master", "country": "Pakistan", "mode": "debug", "condition": 0, "engagement": "5", "difficulty": "8"}, "trialData": {"rt": 53454, "hit": "311", "trial": 2, "response_speaker": "machine", "machine_groundtruth": "mccq", "imageID": "static/dataset/coco_val_set/311.jpg", "page_name": "311_c_0.html/", "counterbalance": 0, "groundtruth": "machine", "human_groundtruth": "", "response_gender": "male"}}, "Trial_43": {"workerID": "debugHfdiz", "workerData": {"native": "no", "age": "26-30", "gender": "male", "education": "master", "country": "Pakistan", "mode": "debug", "condition": 0, "engagement": "5", "difficulty": "8"}, "trialData": {"rt": 33566, "hit": "712", "trial": 3, "response_speaker": "human", "machine_groundtruth": "mccq", "imageID": "static/dataset/coco_val_set/712.jpg", "page_name": "712_c_0.html/", "counterbalance": 0, "groundtruth": "machine", "human_groundtruth": "", "response_gender": "male"}}, "Trial_44": {"workerID": "debugHfdiz", "workerData": {"native": "no", "age": "26-30", "gender": "male", "education": "master", "country": "Pakistan", "mode": "debug", "condition": 0, "engagement": "5", "difficulty": "8"}, "trialData": {"rt": 15017, "hit": "312", "trial": 4, "response_speaker": "human", "machine_groundtruth": "", "imageID": "static/dataset/coco_val_set/312.jpg", "page_name": "312_a_0.html/", "counterbalance": 0, "groundtruth": "human", "human_groundtruth": "human", "response_gender": "female"}}, "Trial_45": {"workerID": "debugHfdiz", "workerData": {"native": "no", "age": "26-30", "gender": "male", "education": "master", "country": "Pakistan", "mode": "debug", "condition": 0, "engagement": "5", "difficulty": "8"}, "trialData": {"rt": 99618, "hit": "889", "trial": 5, "response_speaker": "machine", "machine_groundtruth": "", "imageID": "static/dataset/coco_val_set/889.jpg", "page_name": "889_a_0.html/", "counterbalance": 0, "groundtruth": "human", "human_groundtruth": "human", "response_gender": "male"}}, "Trial_46": {"workerID": "debugHfdiz", "workerData": {"native": "no", "age": "26-30", "gender": "male", "education": "master", "country": "Pakistan", "mode": "debug", "condition": 0, "engagement": "5", "difficulty": "8"}, "trialData": {"rt": 16019, "hit": "221", "trial": 6, "response_speaker": "human", "machine_groundtruth": "", "imageID": "static/dataset/coco_val_set/221.jpg", "page_name": "221_a_0.html/", "counterbalance": 0, "groundtruth": "human", "human_groundtruth": "human", "response_gender": "male"}}, "Trial_47": {"workerID": "debugHfdiz", "workerData": {"native": "no", "age": "26-30", "gender": "male", "education": "master", "country": "Pakistan", "mode": "debug", "condition": 0, "engagement": "5", "difficulty": "8"}, "trialData": {"rt": 11562, "hit": "684", "trial": 7, "response_speaker": "human", "machine_groundtruth": "", "imageID": "static/dataset/coco_val_set/684.jpg", "page_name": "684_a_0.html/", "counterbalance": 0, "groundtruth": "human", "human_groundtruth": "human", "response_gender": "male"}}, "Trial_48": {"workerID": "debugHfdiz", "workerData": {"native": "no", "age": "26-30", "gender": "male", "education": "master", "country": "Pakistan", "mode": "debug", "condition": 0, "engagement": "5", "difficulty": "8"}, "trialData": {"rt": 17265, "hit": "1063", "trial": 8, "response_speaker": "machine", "machine_groundtruth": "", "imageID": "static/dataset/coco_val_set/1063.jpg", "page_name": "1063_a_0.html/", "counterbalance": 0, "groundtruth": "human", "human_groundtruth": "human", "response_gender": "male"}}, "Trial_49": {"workerID": "debugHfdiz", "workerData": {"native": "no", "age": "26-30", "gender": "male", "education": "master", "country": "Pakistan", "mode": "debug", "condition": 0, "engagement": "5", "difficulty": "8"}, "trialData": {"rt": 9437, "hit": "729", "trial": 9, "response_speaker": "machine", "machine_groundtruth": "mccq", "imageID": "static/dataset/coco_val_set/729.jpg", "page_name": "729_c_0.html/", "counterbalance": 0, "groundtruth": "machine", "human_groundtruth": "", "response_gender": "male"}}, "Trial_50": {"workerID": "debugHfdiz", "workerData": {"native": "no", "age": "26-30", "gender": "male", "education": "master", "country": "Pakistan", "mode": "debug", "condition": 0, "engagement": "5", "difficulty": "8"}, "trialData": {"rt": 13595, "hit": "421", "trial": 10, "response_speaker": "machine", "machine_groundtruth": "", "imageID": "static/dataset/coco_val_set/421.jpg", "page_name": "421_a_0.html/", "counterbalance": 0, "groundtruth": "human", "human_groundtruth": "human", "response_gender": "male"}}, "Trial_51": {"workerID": "debugHfdiz", "workerData": {"native": "no", "age": "26-30", "gender": "male", "education": "master", "country": "Pakistan", "mode": "debug", "condition": 0, "engagement": "5", "difficulty": "8"}, "trialData": {"rt": 7092, "hit": "546", "trial": 11, "response_speaker": "machine", "machine_groundtruth": "", "imageID": "static/dataset/coco_val_set/546.jpg", "page_name": "546_a_0.html/", "counterbalance": 0, "groundtruth": "human", "human_groundtruth": "human", "response_gender": "male"}}, "Trial_52": {"workerID": "debugHfdiz", "workerData": {"native": "no", "age": "26-30", "gender": "male", "education": "master", "country": "Pakistan", "mode": "debug", "condition": 0, "engagement": "5", "difficulty": "8"}, "trialData": {"rt": 12288, "hit": "223", "trial": 12, "response_speaker": "human", "machine_groundtruth": "", "imageID": "static/dataset/coco_val_set/223.jpg", "page_name": "223_a_0.html/", "counterbalance": 0, "groundtruth": "human", "human_groundtruth": "human", "response_gender": "male"}}, "Trial_53": {"workerID": "debugHfdiz", "workerData": {"native": "no", "age": "26-30", "gender": "male", "education": "master", "country": "Pakistan", "mode": "debug", "condition": 0, "engagement": "5", "difficulty": "8"}, "trialData": {"rt": 55773, "hit": "621", "trial": 13, "response_speaker": "machine", "machine_groundtruth": "", "imageID": "static/dataset/coco_val_set/621.jpg", "page_name": "621_a_0.html/", "counterbalance": 0, "groundtruth": "human", "human_groundtruth": "human", "response_gender": "male"}}, "Trial_54": {"workerID": "debugHfdiz", "workerData": {"native": "no", "age": "26-30", "gender": "male", "education": "master", "country": "Pakistan", "mode": "debug", "condition": 0, "engagement": "5", "difficulty": "8"}, "trialData": {"rt": 19629, "hit": "1093", "trial": 14, "response_speaker": "machine", "machine_groundtruth": "google", "imageID": "static/dataset/coco_val_set/1093.jpg", "page_name": "1093_d_0.html/", "counterbalance": 0, "groundtruth": "machine", "human_groundtruth": "", "response_gender": "male"}}, "Trial_55": {"workerID": "debugHfdiz", "workerData": {"native": "no", "age": "26-30", "gender": "male", "education": "master", "country": "Pakistan", "mode": "debug", "condition": 0, "engagement": "5", "difficulty": "8"}, "trialData": {"rt": 14098, "hit": "911", "trial": 15, "response_speaker": "human", "machine_groundtruth": "", "imageID": "static/dataset/coco_val_set/911.jpg", "page_name": "911_a_0.html/", "counterbalance": 0, "groundtruth": "human", "human_groundtruth": "human", "response_gender": "female"}}, "Trial_56": {"workerID": "debugHfdiz", "workerData": {"native": "no", "age": "26-30", "gender": "male", "education": "master", "country": "Pakistan", "mode": "debug", "condition": 0, "engagement": "5", "difficulty": "8"}, "trialData": {"rt": 14569, "hit": "142", "trial": 16, "response_speaker": "machine", "machine_groundtruth": "", "imageID": "static/dataset/coco_val_set/142.jpg", "page_name": "142_a_0.html/", "counterbalance": 0, "groundtruth": "human", "human_groundtruth": "human", "response_gender": "female"}}, "Trial_57": {"workerID": "debugHfdiz", "workerData": {"native": "no", "age": "26-30", "gender": "male", "education": "master", "country": "Pakistan", "mode": "debug", "condition": 0, "engagement": "5", "difficulty": "8"}, "trialData": {"rt": 19661, "hit": "133", "trial": 17, "response_speaker": "human", "machine_groundtruth": "", "imageID": "static/dataset/coco_val_set/133.jpg", "page_name": "133_a_0.html/", "counterbalance": 0, "groundtruth": "human", "human_groundtruth": "human", "response_gender": "female"}}, "Trial_58": {"workerID": "debugHfdiz", "workerData": {"native": "no", "age": "26-30", "gender": "male", "education": "master", "country": "Pakistan", "mode": "debug", "condition": 0, "engagement": "5", "difficulty": "8"}, "trialData": {"rt": 23383, "hit": "1000", "trial": 18, "response_speaker": "machine", "machine_groundtruth": "google", "imageID": "static/dataset/coco_val_set/1000.jpg", "page_name": "1000_d_0.html/", "counterbalance": 0, "groundtruth": "machine", "human_groundtruth": "", "response_gender": "female"}}, "Trial_60": {"workerID": "debugHfdiz", "workerData": {"native": "no", "age": "26-30", "gender": "male", "education": "master", "country": "Pakistan", "mode": "debug", "condition": 0, "engagement": "5", "difficulty": "8"}, "trialData": {"rt": 9749, "hit": "610", "trial": 20, "response_speaker": "machine", "machine_groundtruth": "azure", "imageID": "static/dataset/coco_val_set/610.jpg", "page_name": "610_b_0.html/", "counterbalance": 0, "groundtruth": "machine", "human_groundtruth": "", "response_gender": "female"}}, "Trial_62": {"workerID": "debugHfdiz", "workerData": {"native": "no", "age": "26-30", "gender": "male", "education": "master", "country": "Pakistan", "mode": "debug", "condition": 0, "engagement": "5", "difficulty": "8"}, "trialData": {"rt": 138780, "hit": "415", "trial": 22, "response_speaker": "machine", "machine_groundtruth": "mccq", "imageID": "static/dataset/coco_val_set/415.jpg", "page_name": "415_c_0.html/", "counterbalance": 0, "groundtruth": "machine", "human_groundtruth": "", "response_gender": "male"}}, "Trial_64": {"workerID": "debugHfdiz", "workerData": {"native": "no", "age": "26-30", "gender": "male", "education": "master", "country": "Pakistan", "mode": "debug", "condition": 0, "engagement": "5", "difficulty": "8"}, "trialData": {"rt": 25244, "hit": "728", "trial": 24, "response_speaker": "human", "machine_groundtruth": "", "imageID": "static/dataset/coco_val_set/728.jpg", "page_name": "728_a_0.html/", "counterbalance": 0, "groundtruth": "human", "human_groundtruth": "human", "response_gender": "female"}}, "Trial_65": {"workerID": "debugHfdiz", "workerData": {"native": "no", "age": "26-30", "gender": "male", "education": "master", "country": "Pakistan", "mode": "debug", "condition": 0, "engagement": "5", "difficulty": "8"}, "trialData": {"rt": 17647, "hit": "162", "trial": 25, "response_speaker": "machine", "machine_groundtruth": "mccq", "imageID": "static/dataset/coco_val_set/162.jpg", "page_name": "162_c_0.html/", "counterbalance": 0, "groundtruth": "machine", "human_groundtruth": "", "response_gender": "female"}}, "Trial_66": {"workerID": "debugHfdiz", "workerData": {"native": "no", "age": "26-30", "gender": "male", "education": "master", "country": "Pakistan", "mode": "debug", "condition": 0, "engagement": "5", "difficulty": "8"}, "trialData": {"rt": 10928, "hit": "571", "trial": 26, "response_speaker": "human", "machine_groundtruth": "", "imageID": "static/dataset/coco_val_set/571.jpg", "page_name": "571_a_0.html/", "counterbalance": 0, "groundtruth": "human", "human_groundtruth": "human", "response_gender": "female"}}, "Trial_67": {"workerID": "debugHfdiz", "workerData": {"native": "no", "age": "26-30", "gender": "male", "education": "master", "country": "Pakistan", "mode": "debug", "condition": 0, "engagement": "5", "difficulty": "8"}, "trialData": {"rt": 18718, "hit": "295", "trial": 27, "response_speaker": "machine", "machine_groundtruth": "azure", "imageID": "static/dataset/coco_val_set/295.jpg", "page_name": "295_b_0.html/", "counterbalance": 0, "groundtruth": "machine", "human_groundtruth": "", "response_gender": "female"}}, "Trial_68": {"workerID": "debugHfdiz", "workerData": {"native": "no", "age": "26-30", "gender": "male", "education": "master", "country": "Pakistan", "mode": "debug", "condition": 0, "engagement": "5", "difficulty": "8"}, "trialData": {"rt": 22368, "hit": "127", "trial": 28, "response_speaker": "machine", "machine_groundtruth": "", "imageID": "static/dataset/coco_val_set/127.jpg", "page_name": "127_a_0.html/", "counterbalance": 0, "groundtruth": "human", "human_groundtruth": "human", "response_gender": "female"}}, "Trial_70": {"workerID": "debugHfdiz", "workerData": {"native": "no", "age": "26-30", "gender": "male", "education": "master", "country": "Pakistan", "mode": "debug", "condition": 0, "engagement": "5", "difficulty": "8"}, "trialData": {"rt": 68744, "hit": "514", "trial": 30, "response_speaker": "machine", "machine_groundtruth": "", "imageID": "static/dataset/coco_val_set/514.jpg", "page_name": "514_a_0.html/", "counterbalance": 0, "groundtruth": "human", "human_groundtruth": "human", "response_gender": "female"}}, "Trial_71": {"workerID": "debugHfdiz", "workerData": {"native": "no", "age": "26-30", "gender": "male", "education": "master", "country": "Pakistan", "mode": "debug", "condition": 0, "engagement": "5", "difficulty": "8"}, "trialData": {"rt": 12350, "hit": "552", "trial": 31, "response_speaker": "human", "machine_groundtruth": "", "imageID": "static/dataset/coco_val_set/552.jpg", "page_name": "552_a_0.html/", "counterbalance": 0, "groundtruth": "human", "human_groundtruth": "human", "response_gender": "female"}}, "Trial_72": {"workerID": "debugHfdiz", "workerData": {"native": "no", "age": "26-30", "gender": "male", "education": "master", "country": "Pakistan", "mode": "debug", "condition": 0, "engagement": "5", "difficulty": "8"}, "trialData": {"rt": 13032, "hit": "671", "trial": 32, "response_speaker": "human", "machine_groundtruth": "", "imageID": "static/dataset/coco_val_set/671.jpg", "page_name": "671_a_0.html/", "counterbalance": 0, "groundtruth": "human", "human_groundtruth": "human", "response_gender": "female"}}, "Trial_73": {"workerID": "debugHfdiz", "workerData": {"native": "no", "age": "26-30", "gender": "male", "education": "master", "country": "Pakistan", "mode": "debug", "condition": 0, "engagement": "5", "difficulty": "8"}, "trialData": {"rt": 17049, "hit": "256", "trial": 33, "response_speaker": "machine", "machine_groundtruth": "google", "imageID": "static/dataset/coco_val_set/256.jpg", "page_name": "256_d_0.html/", "counterbalance": 0, "groundtruth": "machine", "human_groundtruth": "", "response_gender": "male"}}, "Trial_74": {"workerID": "debugHfdiz", "workerData": {"native": "no", "age": "26-30", "gender": "male", "education": "master", "country": "Pakistan", "mode": "debug", "condition": 0, "engagement": "5", "difficulty": "8"}, "trialData": {"rt": 8091, "hit": "1006", "trial": 34, "response_speaker": "machine", "machine_groundtruth": "", "imageID": "static/dataset/coco_val_set/1006.jpg", "page_name": "1006_a_0.html/", "counterbalance": 0, "groundtruth": "human", "human_groundtruth": "human", "response_gender": "male"}}, "Trial_75": {"workerID": "debugHfdiz", "workerData": {"native": "no", "age": "26-30", "gender": "male", "education": "master", "country": "Pakistan", "mode": "debug", "condition": 0, "engagement": "5", "difficulty": "8"}, "trialData": {"rt": 12921, "hit": "691", "trial": 35, "response_speaker": "human", "machine_groundtruth": "azure", "imageID": "static/dataset/coco_val_set/691.jpg", "page_name": "691_b_0.html/", "counterbalance": 0, "groundtruth": "machine", "human_groundtruth": "", "response_gender": "female"}}, "Trial_76": {"workerID": "debugHfdiz", "workerData": {"native": "no", "age": "26-30", "gender": "male", "education": "master", "country": "Pakistan", "mode": "debug", "condition": 0, "engagement": "5", "difficulty": "8"}, "trialData": {"rt": 14608, "hit": "919", "trial": 36, "response_speaker": "machine", "machine_groundtruth": "google", "imageID": "static/dataset/coco_val_set/919.jpg", "page_name": "919_d_0.html/", "counterbalance": 0, "groundtruth": "machine", "human_groundtruth": "", "response_gender": "male"}}, "Trial_78": {"workerID": "debugHfdiz", "workerData": {"native": "no", "age": "26-30", "gender": "male", "education": "master", "country": "Pakistan", "mode": "debug", "condition": 0, "engagement": "5", "difficulty": "8"}, "trialData": {"rt": 8345, "hit": "699", "trial": 38, "response_speaker": "machine", "machine_groundtruth": "", "imageID": "static/dataset/coco_val_set/699.jpg", "page_name": "699_a_0.html/", "counterbalance": 0, "groundtruth": "human", "human_groundtruth": "human", "response_gender": "male"}}, "Trial_79": {"workerID": "debugHfdiz", "workerData": {"native": "no", "age": "26-30", "gender": "male", "education": "master", "country": "Pakistan", "mode": "debug", "condition": 0, "engagement": "5", "difficulty": "8"}, "trialData": {"rt": 8019, "hit": "46", "trial": 39, "response_speaker": "machine", "machine_groundtruth": "mccq", "imageID": "static/dataset/coco_val_set/46.jpg", "page_name": "46_c_0.html/", "counterbalance": 0, "groundtruth": "machine", "human_groundtruth": "", "response_gender": "male"}}, "Trial_80": {"workerID": "debugHfdiz", "workerData": {"native": "no", "age": "26-30", "gender": "male", "education": "master", "country": "Pakistan", "mode": "debug", "condition": 0, "engagement": "5", "difficulty": "8"}, "trialData": {"rt": 43038, "hit": "844", "trial": 40, "response_speaker": "human", "machine_groundtruth": "", "imageID": "static/dataset/coco_val_set/844.jpg", "page_name": "844_a_0.html/", "counterbalance": 0, "groundtruth": "human", "human_groundtruth": "human", "response_gender": "male"}}, "Trial_81": {"workerID": "debug4TP43", "workerData": {"native": "no", "age": "21-25", "gender": "male", "education": "master", "country": "Italy", "mode": "debug", "condition": 0, "engagement": "5", "difficulty": "5"}, "trialData": {"rt": 9724, "hit": "360", "trial": 1, "response_speaker": "human", "machine_groundtruth": "", "imageID": "static/dataset/coco_val_set/360.jpg", "page_name": "360_a_0.html/", "counterbalance": 0, "groundtruth": "human", "human_groundtruth": "human", "response_gender": "male"}}, "Trial_82": {"workerID": "debug4TP43", "workerData": {"native": "no", "age": "21-25", "gender": "male", "education": "master", "country": "Italy", "mode": "debug", "condition": 0, "engagement": "5", "difficulty": "5"}, "trialData": {"rt": 10350, "hit": "302", "trial": 2, "response_speaker": "machine", "machine_groundtruth": "", "imageID": "static/dataset/coco_val_set/302.jpg", "page_name": "302_a_0.html/", "counterbalance": 0, "groundtruth": "human", "human_groundtruth": "human", "response_gender": "male"}}, "Trial_83": {"workerID": "debug4TP43", "workerData": {"native": "no", "age": "21-25", "gender": "male", "education": "master", "country": "Italy", "mode": "debug", "condition": 0, "engagement": "5", "difficulty": "5"}, "trialData": {"rt": 8183, "hit": "553", "trial": 3, "response_speaker": "machine", "machine_groundtruth": "google", "imageID": "static/dataset/coco_val_set/553.jpg", "page_name": "553_d_0.html/", "counterbalance": 0, "groundtruth": "machine", "human_groundtruth": "", "response_gender": "male"}}, "Trial_85": {"workerID": "debug4TP43", "workerData": {"native": "no", "age": "21-25", "gender": "male", "education": "master", "country": "Italy", "mode": "debug", "condition": 0, "engagement": "5", "difficulty": "5"}, "trialData": {"rt": 12898, "hit": "186", "trial": 5, "response_speaker": "machine", "machine_groundtruth": "", "imageID": "static/dataset/coco_val_set/186.jpg", "page_name": "186_a_0.html/", "counterbalance": 0, "groundtruth": "human", "human_groundtruth": "human", "response_gender": "male"}}, "Trial_86": {"workerID": "debug4TP43", "workerData": {"native": "no", "age": "21-25", "gender": "male", "education": "master", "country": "Italy", "mode": "debug", "condition": 0, "engagement": "5", "difficulty": "5"}, "trialData": {"rt": 8660, "hit": "750", "trial": 6, "response_speaker": "human", "machine_groundtruth": "google", "imageID": "static/dataset/coco_val_set/750.jpg", "page_name": "750_d_0.html/", "counterbalance": 0, "groundtruth": "machine", "human_groundtruth": "", "response_gender": "male"}}, "Trial_87": {"workerID": "debug4TP43", "workerData": {"native": "no", "age": "21-25", "gender": "male", "education": "master", "country": "Italy", "mode": "debug", "condition": 0, "engagement": "5", "difficulty": "5"}, "trialData": {"rt": 13042, "hit": "279", "trial": 7, "response_speaker": "machine", "machine_groundtruth": "azure", "imageID": "static/dataset/coco_val_set/279.jpg", "page_name": "279_b_0.html/", "counterbalance": 0, "groundtruth": "machine", "human_groundtruth": "", "response_gender": "female"}}, "Trial_88": {"workerID": "debug4TP43", "workerData": {"native": "no", "age": "21-25", "gender": "male", "education": "master", "country": "Italy", "mode": "debug", "condition": 0, "engagement": "5", "difficulty": "5"}, "trialData": {"rt": 4964, "hit": "1057", "trial": 8, "response_speaker": "machine", "machine_groundtruth": "google", "imageID": "static/dataset/coco_val_set/1057.jpg", "page_name": "1057_d_0.html/", "counterbalance": 0, "groundtruth": "machine", "human_groundtruth": "", "response_gender": "female"}}, "Trial_89": {"workerID": "debug4TP43", "workerData": {"native": "no", "age": "21-25", "gender": "male", "education": "master", "country": "Italy", "mode": "debug", "condition": 0, "engagement": "5", "difficulty": "5"}, "trialData": {"rt": 13799, "hit": "185", "trial": 9, "response_speaker": "machine", "machine_groundtruth": "mccq", "imageID": "static/dataset/coco_val_set/185.jpg", "page_name": "185_c_0.html/", "counterbalance": 0, "groundtruth": "machine", "human_groundtruth": "", "response_gender": "male"}}, "Trial_90": {"workerID": "debug4TP43", "workerData": {"native": "no", "age": "21-25", "gender": "male", "education": "master", "country": "Italy", "mode": "debug", "condition": 0, "engagement": "5", "difficulty": "5"}, "trialData": {"rt": 7268, "hit": "775", "trial": 10, "response_speaker": "human", "machine_groundtruth": "", "imageID": "static/dataset/coco_val_set/775.jpg", "page_name": "775_a_0.html/", "counterbalance": 0, "groundtruth": "human", "human_groundtruth": "human", "response_gender": "male"}}, "Trial_93": {"workerID": "debug4TP43", "workerData": {"native": "no", "age": "21-25", "gender": "male", "education": "master", "country": "Italy", "mode": "debug", "condition": 0, "engagement": "5", "difficulty": "5"}, "trialData": {"rt": 17862, "hit": "938", "trial": 13, "response_speaker": "machine", "machine_groundtruth": "", "imageID": "static/dataset/coco_val_set/938.jpg", "page_name": "938_a_0.html/", "counterbalance": 0, "groundtruth": "human", "human_groundtruth": "human", "response_gender": "male"}}, "Trial_94": {"workerID": "debug4TP43", "workerData": {"native": "no", "age": "21-25", "gender": "male", "education": "master", "country": "Italy", "mode": "debug", "condition": 0, "engagement": "5", "difficulty": "5"}, "trialData": {"rt": 4138, "hit": "721", "trial": 14, "response_speaker": "human", "machine_groundtruth": "", "imageID": "static/dataset/coco_val_set/721.jpg", "page_name": "721_a_0.html/", "counterbalance": 0, "groundtruth": "human", "human_groundtruth": "human", "response_gender": "male"}}, "Trial_96": {"workerID": "debug4TP43", "workerData": {"native": "no", "age": "21-25", "gender": "male", "education": "master", "country": "Italy", "mode": "debug", "condition": 0, "engagement": "5", "difficulty": "5"}, "trialData": {"rt": 9511, "hit": "305", "trial": 16, "response_speaker": "machine", "machine_groundtruth": "azure", "imageID": "static/dataset/coco_val_set/305.jpg", "page_name": "305_b_0.html/", "counterbalance": 0, "groundtruth": "machine", "human_groundtruth": "", "response_gender": "female"}}, "Trial_97": {"workerID": "debug4TP43", "workerData": {"native": "no", "age": "21-25", "gender": "male", "education": "master", "country": "Italy", "mode": "debug", "condition": 0, "engagement": "5", "difficulty": "5"}, "trialData": {"rt": 6305, "hit": "5", "trial": 17, "response_speaker": "human", "machine_groundtruth": "", "imageID": "static/dataset/coco_val_set/5.jpg", "page_name": "5_a_0.html/", "counterbalance": 0, "groundtruth": "human", "human_groundtruth": "human", "response_gender": "female"}}, "Trial_98": {"workerID": "debug4TP43", "workerData": {"native": "no", "age": "21-25", "gender": "male", "education": "master", "country": "Italy", "mode": "debug", "condition": 0, "engagement": "5", "difficulty": "5"}, "trialData": {"rt": 5679, "hit": "1137", "trial": 18, "response_speaker": "machine", "machine_groundtruth": "", "imageID": "static/dataset/coco_val_set/1137.jpg", "page_name": "1137_a_0.html/", "counterbalance": 0, "groundtruth": "human", "human_groundtruth": "human", "response_gender": "female"}}, "Trial_99": {"workerID": "debug4TP43", "workerData": {"native": "no", "age": "21-25", "gender": "male", "education": "master", "country": "Italy", "mode": "debug", "condition": 0, "engagement": "5", "difficulty": "5"}, "trialData": {"rt": 6507, "hit": "697", "trial": 19, "response_speaker": "human", "machine_groundtruth": "", "imageID": "static/dataset/coco_val_set/697.jpg", "page_name": "697_a_0.html/", "counterbalance": 0, "groundtruth": "human", "human_groundtruth": "human", "response_gender": "male"}}, "Trial_100": {"workerID": "debug4TP43", "workerData": {"native": "no", "age": "21-25", "gender": "male", "education": "master", "country": "Italy", "mode": "debug", "condition": 0, "engagement": "5", "difficulty": "5"}, "trialData": {"rt": 7963, "hit": "93", "trial": 20, "response_speaker": "machine", "machine_groundtruth": "azure", "imageID": "static/dataset/coco_val_set/93.jpg", "page_name": "93_b_0.html/", "counterbalance": 0, "groundtruth": "machine", "human_groundtruth": "", "response_gender": "male"}}, "Trial_101": {"workerID": "debug4TP43", "workerData": {"native": "no", "age": "21-25", "gender": "male", "education": "master", "country": "Italy", "mode": "debug", "condition": 0, "engagement": "5", "difficulty": "5"}, "trialData": {"rt": 6946, "hit": "12", "trial": 21, "response_speaker": "human", "machine_groundtruth": "", "imageID": "static/dataset/coco_val_set/12.jpg", "page_name": "12_a_0.html/", "counterbalance": 0, "groundtruth": "human", "human_groundtruth": "human", "response_gender": "male"}}, "Trial_102": {"workerID": "debug4TP43", "workerData": {"native": "no", "age": "21-25", "gender": "male", "education": "master", "country": "Italy", "mode": "debug", "condition": 0, "engagement": "5", "difficulty": "5"}, "trialData": {"rt": 7184, "hit": "738", "trial": 22, "response_speaker": "machine", "machine_groundtruth": "", "imageID": "static/dataset/coco_val_set/738.jpg", "page_name": "738_a_0.html/", "counterbalance": 0, "groundtruth": "human", "human_groundtruth": "human", "response_gender": "female"}}, "Trial_103": {"workerID": "debug4TP43", "workerData": {"native": "no", "age": "21-25", "gender": "male", "education": "master", "country": "Italy", "mode": "debug", "condition": 0, "engagement": "5", "difficulty": "5"}, "trialData": {"rt": 12346, "hit": "308", "trial": 23, "response_speaker": "human", "machine_groundtruth": "", "imageID": "static/dataset/coco_val_set/308.jpg", "page_name": "308_a_0.html/", "counterbalance": 0, "groundtruth": "human", "human_groundtruth": "human", "response_gender": "female"}}, "Trial_104": {"workerID": "debug4TP43", "workerData": {"native": "no", "age": "21-25", "gender": "male", "education": "master", "country": "Italy", "mode": "debug", "condition": 0, "engagement": "5", "difficulty": "5"}, "trialData": {"rt": 4497, "hit": "118", "trial": 24, "response_speaker": "human", "machine_groundtruth": "azure", "imageID": "static/dataset/coco_val_set/118.jpg", "page_name": "118_b_0.html/", "counterbalance": 0, "groundtruth": "machine", "human_groundtruth": "", "response_gender": "male"}}, "Trial_105": {"workerID": "debug4TP43", "workerData": {"native": "no", "age": "21-25", "gender": "male", "education": "master", "country": "Italy", "mode": "debug", "condition": 0, "engagement": "5", "difficulty": "5"}, "trialData": {"rt": 3852, "hit": "685", "trial": 25, "response_speaker": "machine", "machine_groundtruth": "azure", "imageID": "static/dataset/coco_val_set/685.jpg", "page_name": "685_b_0.html/", "counterbalance": 0, "groundtruth": "machine", "human_groundtruth": "", "response_gender": "female"}}, "Trial_107": {"workerID": "debug4TP43", "workerData": {"native": "no", "age": "21-25", "gender": "male", "education": "master", "country": "Italy", "mode": "debug", "condition": 0, "engagement": "5", "difficulty": "5"}, "trialData": {"rt": 6133, "hit": "82", "trial": 27, "response_speaker": "human", "machine_groundtruth": "google", "imageID": "static/dataset/coco_val_set/82.jpg", "page_name": "82_d_0.html/", "counterbalance": 0, "groundtruth": "machine", "human_groundtruth": "", "response_gender": "male"}}, "Trial_109": {"workerID": "debug4TP43", "workerData": {"native": "no", "age": "21-25", "gender": "male", "education": "master", "country": "Italy", "mode": "debug", "condition": 0, "engagement": "5", "difficulty": "5"}, "trialData": {"rt": 7115, "hit": "158", "trial": 29, "response_speaker": "human", "machine_groundtruth": "", "imageID": "static/dataset/coco_val_set/158.jpg", "page_name": "158_a_0.html/", "counterbalance": 0, "groundtruth": "human", "human_groundtruth": "human", "response_gender": "female"}}, "Trial_110": {"workerID": "debug4TP43", "workerData": {"native": "no", "age": "21-25", "gender": "male", "education": "master", "country": "Italy", "mode": "debug", "condition": 0, "engagement": "5", "difficulty": "5"}, "trialData": {"rt": 11499, "hit": "427", "trial": 30, "response_speaker": "human", "machine_groundtruth": "", "imageID": "static/dataset/coco_val_set/427.jpg", "page_name": "427_a_0.html/", "counterbalance": 0, "groundtruth": "human", "human_groundtruth": "human", "response_gender": "male"}}, "Trial_112": {"workerID": "debug4TP43", "workerData": {"native": "no", "age": "21-25", "gender": "male", "education": "master", "country": "Italy", "mode": "debug", "condition": 0, "engagement": "5", "difficulty": "5"}, "trialData": {"rt": 4167, "hit": "1131", "trial": 32, "response_speaker": "human", "machine_groundtruth": "google", "imageID": "static/dataset/coco_val_set/1131.jpg", "page_name": "1131_d_0.html/", "counterbalance": 0, "groundtruth": "machine", "human_groundtruth": "", "response_gender": "male"}}, "Trial_113": {"workerID": "debug4TP43", "workerData": {"native": "no", "age": "21-25", "gender": "male", "education": "master", "country": "Italy", "mode": "debug", "condition": 0, "engagement": "5", "difficulty": "5"}, "trialData": {"rt": 4845, "hit": "987", "trial": 33, "response_speaker": "machine", "machine_groundtruth": "mccq", "imageID": "static/dataset/coco_val_set/987.jpg", "page_name": "987_c_0.html/", "counterbalance": 0, "groundtruth": "machine", "human_groundtruth": "", "response_gender": "male"}}, "Trial_114": {"workerID": "debug4TP43", "workerData": {"native": "no", "age": "21-25", "gender": "male", "education": "master", "country": "Italy", "mode": "debug", "condition": 0, "engagement": "5", "difficulty": "5"}, "trialData": {"rt": 4777, "hit": "159", "trial": 34, "response_speaker": "human", "machine_groundtruth": "", "imageID": "static/dataset/coco_val_set/159.jpg", "page_name": "159_a_0.html/", "counterbalance": 0, "groundtruth": "human", "human_groundtruth": "human", "response_gender": "male"}}, "Trial_115": {"workerID": "debug4TP43", "workerData": {"native": "no", "age": "21-25", "gender": "male", "education": "master", "country": "Italy", "mode": "debug", "condition": 0, "engagement": "5", "difficulty": "5"}, "trialData": {"rt": 4702, "hit": "139", "trial": 35, "response_speaker": "human", "machine_groundtruth": "", "imageID": "static/dataset/coco_val_set/139.jpg", "page_name": "139_a_0.html/", "counterbalance": 0, "groundtruth": "human", "human_groundtruth": "human", "response_gender": "male"}}, "Trial_116": {"workerID": "debug4TP43", "workerData": {"native": "no", "age": "21-25", "gender": "male", "education": "master", "country": "Italy", "mode": "debug", "condition": 0, "engagement": "5", "difficulty": "5"}, "trialData": {"rt": 5503, "hit": "1040", "trial": 36, "response_speaker": "machine", "machine_groundtruth": "", "imageID": "static/dataset/coco_val_set/1040.jpg", "page_name": "1040_a_0.html/", "counterbalance": 0, "groundtruth": "human", "human_groundtruth": "human", "response_gender": "female"}}, "Trial_117": {"workerID": "debug4TP43", "workerData": {"native": "no", "age": "21-25", "gender": "male", "education": "master", "country": "Italy", "mode": "debug", "condition": 0, "engagement": "5", "difficulty": "5"}, "trialData": {"rt": 5452, "hit": "38", "trial": 37, "response_speaker": "machine", "machine_groundtruth": "mccq", "imageID": "static/dataset/coco_val_set/38.jpg", "page_name": "38_c_0.html/", "counterbalance": 0, "groundtruth": "machine", "human_groundtruth": "", "response_gender": "female"}}, "Trial_118": {"workerID": "debug4TP43", "workerData": {"native": "no", "age": "21-25", "gender": "male", "education": "master", "country": "Italy", "mode": "debug", "condition": 0, "engagement": "5", "difficulty": "5"}, "trialData": {"rt": 59430, "hit": "1168", "trial": 38, "response_speaker": "machine", "machine_groundtruth": "", "imageID": "static/dataset/coco_val_set/1168.jpg", "page_name": "1168_a_0.html/", "counterbalance": 0, "groundtruth": "human", "human_groundtruth": "human", "response_gender": "male"}}, "Trial_119": {"workerID": "debug4TP43", "workerData": {"native": "no", "age": "21-25", "gender": "male", "education": "master", "country": "Italy", "mode": "debug", "condition": 0, "engagement": "5", "difficulty": "5"}, "trialData": {"rt": 5271, "hit": "790", "trial": 39, "response_speaker": "machine", "machine_groundtruth": "google", "imageID": "static/dataset/coco_val_set/790.jpg", "page_name": "790_d_0.html/", "counterbalance": 0, "groundtruth": "machine", "human_groundtruth": "", "response_gender": "male"}}, "Trial_120": {"workerID": "debug4TP43", "workerData": {"native": "no", "age": "21-25", "gender": "male", "education": "master", "country": "Italy", "mode": "debug", "condition": 0, "engagement": "5", "difficulty": "5"}, "trialData": {"rt": 15772, "hit": "1153", "trial": 40, "response_speaker": "machine", "machine_groundtruth": "", "imageID": "static/dataset/coco_val_set/1153.jpg", "page_name": "1153_a_0.html/", "counterbalance": 0, "groundtruth": "human", "human_groundtruth": "human", "response_gender": "male"}}, "Trial_121": {"workerID": "debugaaIBq", "workerData": {"native": "no", "age": "31-35", "gender": "female", "education": "bachelor", "country": "Peru", "mode": "debug", "condition": 0, "engagement": "3", "difficulty": "7"}, "trialData": {"rt": 28844, "hit": "817", "trial": 1, "response_speaker": "machine", "machine_groundtruth": "", "imageID": "static/dataset/coco_val_set/817.jpg", "page_name": "817_a_0.html/", "counterbalance": 0, "groundtruth": "human", "human_groundtruth": "human", "response_gender": "male"}}, "Trial_122": {"workerID": "debugaaIBq", "workerData": {"native": "no", "age": "31-35", "gender": "female", "education": "bachelor", "country": "Peru", "mode": "debug", "condition": 0, "engagement": "3", "difficulty": "7"}, "trialData": {"rt": 22660, "hit": "524", "trial": 2, "response_speaker": "human", "machine_groundtruth": "", "imageID": "static/dataset/coco_val_set/524.jpg", "page_name": "524_a_0.html/", "counterbalance": 0, "groundtruth": "human", "human_groundtruth": "human", "response_gender": "male"}}, "Trial_123": {"workerID": "debugaaIBq", "workerData": {"native": "no", "age": "31-35", "gender": "female", "education": "bachelor", "country": "Peru", "mode": "debug", "condition": 0, "engagement": "3", "difficulty": "7"}, "trialData": {"rt": 17295, "hit": "106", "trial": 3, "response_speaker": "human", "machine_groundtruth": "", "imageID": "static/dataset/coco_val_set/106.jpg", "page_name": "106_a_0.html/", "counterbalance": 0, "groundtruth": "human", "human_groundtruth": "human", "response_gender": "female"}}, "Trial_124": {"workerID": "debugaaIBq", "workerData": {"native": "no", "age": "31-35", "gender": "female", "education": "bachelor", "country": "Peru", "mode": "debug", "condition": 0, "engagement": "3", "difficulty": "7"}, "trialData": {"rt": 200904, "hit": "805", "trial": 4, "response_speaker": "human", "machine_groundtruth": "azure", "imageID": "static/dataset/coco_val_set/805.jpg", "page_name": "805_b_0.html/", "counterbalance": 0, "groundtruth": "machine", "human_groundtruth": "", "response_gender": "male"}}, "Trial_125": {"workerID": "debugaaIBq", "workerData": {"native": "no", "age": "31-35", "gender": "female", "education": "bachelor", "country": "Peru", "mode": "debug", "condition": 0, "engagement": "3", "difficulty": "7"}, "trialData": {"rt": 20099, "hit": "800", "trial": 5, "response_speaker": "human", "machine_groundtruth": "", "imageID": "static/dataset/coco_val_set/800.jpg", "page_name": "800_a_0.html/", "counterbalance": 0, "groundtruth": "human", "human_groundtruth": "human", "response_gender": "male"}}, "Trial_126": {"workerID": "debugaaIBq", "workerData": {"native": "no", "age": "31-35", "gender": "female", "education": "bachelor", "country": "Peru", "mode": "debug", "condition": 0, "engagement": "3", "difficulty": "7"}, "trialData": {"rt": 95956, "hit": "253", "trial": 6, "response_speaker": "human", "machine_groundtruth": "", "imageID": "static/dataset/coco_val_set/253.jpg", "page_name": "253_a_0.html/", "counterbalance": 0, "groundtruth": "human", "human_groundtruth": "human", "response_gender": "female"}}, "Trial_127": {"workerID": "debugaaIBq", "workerData": {"native": "no", "age": "31-35", "gender": "female", "education": "bachelor", "country": "Peru", "mode": "debug", "condition": 0, "engagement": "3", "difficulty": "7"}, "trialData": {"rt": 81082, "hit": "1073", "trial": 7, "response_speaker": "machine", "machine_groundtruth": "google", "imageID": "static/dataset/coco_val_set/1073.jpg", "page_name": "1073_d_0.html/", "counterbalance": 0, "groundtruth": "machine", "human_groundtruth": "", "response_gender": "female"}}, "Trial_128": {"workerID": "debugaaIBq", "workerData": {"native": "no", "age": "31-35", "gender": "female", "education": "bachelor", "country": "Peru", "mode": "debug", "condition": 0, "engagement": "3", "difficulty": "7"}, "trialData": {"rt": 11417, "hit": "1140", "trial": 8, "response_speaker": "human", "machine_groundtruth": "", "imageID": "static/dataset/coco_val_set/1140.jpg", "page_name": "1140_a_0.html/", "counterbalance": 0, "groundtruth": "human", "human_groundtruth": "human", "response_gender": "male"}}, "Trial_129": {"workerID": "debugaaIBq", "workerData": {"native": "no", "age": "31-35", "gender": "female", "education": "bachelor", "country": "Peru", "mode": "debug", "condition": 0, "engagement": "3", "difficulty": "7"}, "trialData": {"rt": 12978, "hit": "793", "trial": 9, "response_speaker": "machine", "machine_groundtruth": "azure", "imageID": "static/dataset/coco_val_set/793.jpg", "page_name": "793_b_0.html/", "counterbalance": 0, "groundtruth": "machine", "human_groundtruth": "", "response_gender": "female"}}, "Trial_130": {"workerID": "debugaaIBq", "workerData": {"native": "no", "age": "31-35", "gender": "female", "education": "bachelor", "country": "Peru", "mode": "debug", "condition": 0, "engagement": "3", "difficulty": "7"}, "trialData": {"rt": 6960, "hit": "716", "trial": 10, "response_speaker": "human", "machine_groundtruth": "mccq", "imageID": "static/dataset/coco_val_set/716.jpg", "page_name": "716_c_0.html/", "counterbalance": 0, "groundtruth": "machine", "human_groundtruth": "", "response_gender": "female"}}, "Trial_131": {"workerID": "debugaaIBq", "workerData": {"native": "no", "age": "31-35", "gender": "female", "education": "bachelor", "country": "Peru", "mode": "debug", "condition": 0, "engagement": "3", "difficulty": "7"}, "trialData": {"rt": 9140, "hit": "18", "trial": 11, "response_speaker": "human", "machine_groundtruth": "", "imageID": "static/dataset/coco_val_set/18.jpg", "page_name": "18_a_0.html/", "counterbalance": 0, "groundtruth": "human", "human_groundtruth": "human", "response_gender": "male"}}, "Trial_132": {"workerID": "debugaaIBq", "workerData": {"native": "no", "age": "31-35", "gender": "female", "education": "bachelor", "country": "Peru", "mode": "debug", "condition": 0, "engagement": "3", "difficulty": "7"}, "trialData": {"rt": 11483, "hit": "85", "trial": 12, "response_speaker": "machine", "machine_groundtruth": "", "imageID": "static/dataset/coco_val_set/85.jpg", "page_name": "85_a_0.html/", "counterbalance": 0, "groundtruth": "human", "human_groundtruth": "human", "response_gender": "male"}}, "Trial_133": {"workerID": "debugaaIBq", "workerData": {"native": "no", "age": "31-35", "gender": "female", "education": "bachelor", "country": "Peru", "mode": "debug", "condition": 0, "engagement": "3", "difficulty": "7"}, "trialData": {"rt": 14467, "hit": "466", "trial": 13, "response_speaker": "machine", "machine_groundtruth": "", "imageID": "static/dataset/coco_val_set/466.jpg", "page_name": "466_a_0.html/", "counterbalance": 0, "groundtruth": "human", "human_groundtruth": "human", "response_gender": "female"}}, "Trial_135": {"workerID": "debugaaIBq", "workerData": {"native": "no", "age": "31-35", "gender": "female", "education": "bachelor", "country": "Peru", "mode": "debug", "condition": 0, "engagement": "3", "difficulty": "7"}, "trialData": {"rt": 14691, "hit": "766", "trial": 15, "response_speaker": "human", "machine_groundtruth": "", "imageID": "static/dataset/coco_val_set/766.jpg", "page_name": "766_a_0.html/", "counterbalance": 0, "groundtruth": "human", "human_groundtruth": "human", "response_gender": "male"}}, "Trial_136": {"workerID": "debugaaIBq", "workerData": {"native": "no", "age": "31-35", "gender": "female", "education": "bachelor", "country": "Peru", "mode": "debug", "condition": 0, "engagement": "3", "difficulty": "7"}, "trialData": {"rt": 22928, "hit": "500", "trial": 16, "response_speaker": "machine", "machine_groundtruth": "google", "imageID": "static/dataset/coco_val_set/500.jpg", "page_name": "500_d_0.html/", "counterbalance": 0, "groundtruth": "machine", "human_groundtruth": "", "response_gender": "female"}}, "Trial_137": {"workerID": "debugaaIBq", "workerData": {"native": "no", "age": "31-35", "gender": "female", "education": "bachelor", "country": "Peru", "mode": "debug", "condition": 0, "engagement": "3", "difficulty": "7"}, "trialData": {"rt": 38576, "hit": "922", "trial": 17, "response_speaker": "human", "machine_groundtruth": "", "imageID": "static/dataset/coco_val_set/922.jpg", "page_name": "922_a_0.html/", "counterbalance": 0, "groundtruth": "human", "human_groundtruth": "human", "response_gender": "male"}}, "Trial_138": {"workerID": "debugaaIBq", "workerData": {"native": "no", "age": "31-35", "gender": "female", "education": "bachelor", "country": "Peru", "mode": "debug", "condition": 0, "engagement": "3", "difficulty": "7"}, "trialData": {"rt": 9643, "hit": "392", "trial": 18, "response_speaker": "machine", "machine_groundtruth": "", "imageID": "static/dataset/coco_val_set/392.jpg", "page_name": "392_a_0.html/", "counterbalance": 0, "groundtruth": "human", "human_groundtruth": "human", "response_gender": "female"}}, "Trial_139": {"workerID": "debugaaIBq", "workerData": {"native": "no", "age": "31-35", "gender": "female", "education": "bachelor", "country": "Peru", "mode": "debug", "condition": 0, "engagement": "3", "difficulty": "7"}, "trialData": {"rt": 10674, "hit": "547", "trial": 19, "response_speaker": "human", "machine_groundtruth": "", "imageID": "static/dataset/coco_val_set/547.jpg", "page_name": "547_a_0.html/", "counterbalance": 0, "groundtruth": "human", "human_groundtruth": "human", "response_gender": "female"}}, "Trial_140": {"workerID": "debugaaIBq", "workerData": {"native": "no", "age": "31-35", "gender": "female", "education": "bachelor", "country": "Peru", "mode": "debug", "condition": 0, "engagement": "3", "difficulty": "7"}, "trialData": {"rt": 15783, "hit": "633", "trial": 20, "response_speaker": "human", "machine_groundtruth": "", "imageID": "static/dataset/coco_val_set/633.jpg", "page_name": "633_a_0.html/", "counterbalance": 0, "groundtruth": "human", "human_groundtruth": "human", "response_gender": "female"}}, "Trial_141": {"workerID": "debugaaIBq", "workerData": {"native": "no", "age": "31-35", "gender": "female", "education": "bachelor", "country": "Peru", "mode": "debug", "condition": 0, "engagement": "3", "difficulty": "7"}, "trialData": {"rt": 8267, "hit": "1118", "trial": 21, "response_speaker": "human", "machine_groundtruth": "azure", "imageID": "static/dataset/coco_val_set/1118.jpg", "page_name": "1118_b_0.html/", "counterbalance": 0, "groundtruth": "machine", "human_groundtruth": "", "response_gender": "male"}}, "Trial_142": {"workerID": "debugaaIBq", "workerData": {"native": "no", "age": "31-35", "gender": "female", "education": "bachelor", "country": "Peru", "mode": "debug", "condition": 0, "engagement": "3", "difficulty": "7"}, "trialData": {"rt": 20509, "hit": "655", "trial": 22, "response_speaker": "machine", "machine_groundtruth": "", "imageID": "static/dataset/coco_val_set/655.jpg", "page_name": "655_a_0.html/", "counterbalance": 0, "groundtruth": "human", "human_groundtruth": "human", "response_gender": "male"}}, "Trial_143": {"workerID": "debugaaIBq", "workerData": {"native": "no", "age": "31-35", "gender": "female", "education": "bachelor", "country": "Peru", "mode": "debug", "condition": 0, "engagement": "3", "difficulty": "7"}, "trialData": {"rt": 18752, "hit": "860", "trial": 23, "response_speaker": "human", "machine_groundtruth": "", "imageID": "static/dataset/coco_val_set/860.jpg", "page_name": "860_a_0.html/", "counterbalance": 0, "groundtruth": "human", "human_groundtruth": "human", "response_gender": "female"}}, "Trial_144": {"workerID": "debugaaIBq", "workerData": {"native": "no", "age": "31-35", "gender": "female", "education": "bachelor", "country": "Peru", "mode": "debug", "condition": 0, "engagement": "3", "difficulty": "7"}, "trialData": {"rt": 19415, "hit": "542", "trial": 24, "response_speaker": "machine", "machine_groundtruth": "mccq", "imageID": "static/dataset/coco_val_set/542.jpg", "page_name": "542_c_0.html/", "counterbalance": 0, "groundtruth": "machine", "human_groundtruth": "", "response_gender": "male"}}, "Trial_145": {"workerID": "debugaaIBq", "workerData": {"native": "no", "age": "31-35", "gender": "female", "education": "bachelor", "country": "Peru", "mode": "debug", "condition": 0, "engagement": "3", "difficulty": "7"}, "trialData": {"rt": 21727, "hit": "1063", "trial": 25, "response_speaker": "machine", "machine_groundtruth": "", "imageID": "static/dataset/coco_val_set/1063.jpg", "page_name": "1063_a_0.html/", "counterbalance": 0, "groundtruth": "human", "human_groundtruth": "human", "response_gender": "female"}}, "Trial_146": {"workerID": "debugaaIBq", "workerData": {"native": "no", "age": "31-35", "gender": "female", "education": "bachelor", "country": "Peru", "mode": "debug", "condition": 0, "engagement": "3", "difficulty": "7"}, "trialData": {"rt": 10313, "hit": "791", "trial": 26, "response_speaker": "human", "machine_groundtruth": "", "imageID": "static/dataset/coco_val_set/791.jpg", "page_name": "791_a_0.html/", "counterbalance": 0, "groundtruth": "human", "human_groundtruth": "human", "response_gender": "male"}}, "Trial_147": {"workerID": "debugaaIBq", "workerData": {"native": "no", "age": "31-35", "gender": "female", "education": "bachelor", "country": "Peru", "mode": "debug", "condition": 0, "engagement": "3", "difficulty": "7"}, "trialData": {"rt": 13789, "hit": "561", "trial": 27, "response_speaker": "machine", "machine_groundtruth": "", "imageID": "static/dataset/coco_val_set/561.jpg", "page_name": "561_a_0.html/", "counterbalance": 0, "groundtruth": "human", "human_groundtruth": "human", "response_gender": "male"}}, "Trial_148": {"workerID": "debugaaIBq", "workerData": {"native": "no", "age": "31-35", "gender": "female", "education": "bachelor", "country": "Peru", "mode": "debug", "condition": 0, "engagement": "3", "difficulty": "7"}, "trialData": {"rt": 9636, "hit": "1194", "trial": 28, "response_speaker": "human", "machine_groundtruth": "", "imageID": "static/dataset/coco_val_set/1194.jpg", "page_name": "1194_a_0.html/", "counterbalance": 0, "groundtruth": "human", "human_groundtruth": "human", "response_gender": "female"}}, "Trial_149": {"workerID": "debugaaIBq", "workerData": {"native": "no", "age": "31-35", "gender": "female", "education": "bachelor", "country": "Peru", "mode": "debug", "condition": 0, "engagement": "3", "difficulty": "7"}, "trialData": {"rt": 16916, "hit": "370", "trial": 29, "response_speaker": "machine", "machine_groundtruth": "mccq", "imageID": "static/dataset/coco_val_set/370.jpg", "page_name": "370_c_0.html/", "counterbalance": 0, "groundtruth": "machine", "human_groundtruth": "", "response_gender": "male"}}, "Trial_150": {"workerID": "debugaaIBq", "workerData": {"native": "no", "age": "31-35", "gender": "female", "education": "bachelor", "country": "Peru", "mode": "debug", "condition": 0, "engagement": "3", "difficulty": "7"}, "trialData": {"rt": 9820, "hit": "1095", "trial": 30, "response_speaker": "machine", "machine_groundtruth": "mccq", "imageID": "static/dataset/coco_val_set/1095.jpg", "page_name": "1095_c_0.html/", "counterbalance": 0, "groundtruth": "machine", "human_groundtruth": "", "response_gender": "female"}}, "Trial_151": {"workerID": "debugaaIBq", "workerData": {"native": "no", "age": "31-35", "gender": "female", "education": "bachelor", "country": "Peru", "mode": "debug", "condition": 0, "engagement": "3", "difficulty": "7"}, "trialData": {"rt": 6735, "hit": "212", "trial": 31, "response_speaker": "human", "machine_groundtruth": "", "imageID": "static/dataset/coco_val_set/212.jpg", "page_name": "212_a_0.html/", "counterbalance": 0, "groundtruth": "human", "human_groundtruth": "human", "response_gender": "male"}}, "Trial_152": {"workerID": "debugaaIBq", "workerData": {"native": "no", "age": "31-35", "gender": "female", "education": "bachelor", "country": "Peru", "mode": "debug", "condition": 0, "engagement": "3", "difficulty": "7"}, "trialData": {"rt": 16500, "hit": "151", "trial": 32, "response_speaker": "human", "machine_groundtruth": "mccq", "imageID": "static/dataset/coco_val_set/151.jpg", "page_name": "151_c_0.html/", "counterbalance": 0, "groundtruth": "machine", "human_groundtruth": "", "response_gender": "female"}}, "Trial_153": {"workerID": "debugaaIBq", "workerData": {"native": "no", "age": "31-35", "gender": "female", "education": "bachelor", "country": "Peru", "mode": "debug", "condition": 0, "engagement": "3", "difficulty": "7"}, "trialData": {"rt": 13491, "hit": "1014", "trial": 33, "response_speaker": "human", "machine_groundtruth": "mccq", "imageID": "static/dataset/coco_val_set/1014.jpg", "page_name": "1014_c_0.html/", "counterbalance": 0, "groundtruth": "machine", "human_groundtruth": "", "response_gender": "male"}}, "Trial_154": {"workerID": "debugaaIBq", "workerData": {"native": "no", "age": "31-35", "gender": "female", "education": "bachelor", "country": "Peru", "mode": "debug", "condition": 0, "engagement": "3", "difficulty": "7"}, "trialData": {"rt": 50203, "hit": "465", "trial": 34, "response_speaker": "machine", "machine_groundtruth": "azure", "imageID": "static/dataset/coco_val_set/465.jpg", "page_name": "465_b_0.html/", "counterbalance": 0, "groundtruth": "machine", "human_groundtruth": "", "response_gender": "male"}}, "Trial_156": {"workerID": "debugaaIBq", "workerData": {"native": "no", "age": "31-35", "gender": "female", "education": "bachelor", "country": "Peru", "mode": "debug", "condition": 0, "engagement": "3", "difficulty": "7"}, "trialData": {"rt": 16686, "hit": "617", "trial": 36, "response_speaker": "human", "machine_groundtruth": "azure", "imageID": "static/dataset/coco_val_set/617.jpg", "page_name": "617_b_0.html/", "counterbalance": 0, "groundtruth": "machine", "human_groundtruth": "", "response_gender": "female"}}, "Trial_157": {"workerID": "debugaaIBq", "workerData": {"native": "no", "age": "31-35", "gender": "female", "education": "bachelor", "country": "Peru", "mode": "debug", "condition": 0, "engagement": "3", "difficulty": "7"}, "trialData": {"rt": 6583, "hit": "885", "trial": 37, "response_speaker": "human", "machine_groundtruth": "", "imageID": "static/dataset/coco_val_set/885.jpg", "page_name": "885_a_0.html/", "counterbalance": 0, "groundtruth": "human", "human_groundtruth": "human", "response_gender": "female"}}, "Trial_158": {"workerID": "debugaaIBq", "workerData": {"native": "no", "age": "31-35", "gender": "female", "education": "bachelor", "country": "Peru", "mode": "debug", "condition": 0, "engagement": "3", "difficulty": "7"}, "trialData": {"rt": 8261, "hit": "501", "trial": 38, "response_speaker": "machine", "machine_groundtruth": "azure", "imageID": "static/dataset/coco_val_set/501.jpg", "page_name": "501_b_0.html/", "counterbalance": 0, "groundtruth": "machine", "human_groundtruth": "", "response_gender": "male"}}, "Trial_159": {"workerID": "debugaaIBq", "workerData": {"native": "no", "age": "31-35", "gender": "female", "education": "bachelor", "country": "Peru", "mode": "debug", "condition": 0, "engagement": "3", "difficulty": "7"}, "trialData": {"rt": 5946, "hit": "426", "trial": 39, "response_speaker": "human", "machine_groundtruth": "", "imageID": "static/dataset/coco_val_set/426.jpg", "page_name": "426_a_0.html/", "counterbalance": 0, "groundtruth": "human", "human_groundtruth": "human", "response_gender": "female"}}, "Trial_160": {"workerID": "debugaaIBq", "workerData": {"native": "no", "age": "31-35", "gender": "female", "education": "bachelor", "country": "Peru", "mode": "debug", "condition": 0, "engagement": "3", "difficulty": "7"}, "trialData": {"rt": 19092, "hit": "562", "trial": 40, "response_speaker": "machine", "machine_groundtruth": "google", "imageID": "static/dataset/coco_val_set/562.jpg", "page_name": "562_d_0.html/", "counterbalance": 0, "groundtruth": "machine", "human_groundtruth": "", "response_gender": "male"}}, "Trial_161": {"workerID": "debugbhrBH", "workerData": {"native": "no", "age": "26-30", "gender": "male", "education": "master", "country": "France", "mode": "debug", "condition": 0, "engagement": "8", "difficulty": "5"}, "trialData": {"rt": 8456618, "hit": "288", "trial": 1, "response_speaker": "machine", "machine_groundtruth": "", "imageID": "static/dataset/coco_val_set/288.jpg", "page_name": "288_a_0.html/", "counterbalance": 0, "groundtruth": "human", "human_groundtruth": "human", "response_gender": "male"}}, "Trial_162": {"workerID": "debugbhrBH", "workerData": {"native": "no", "age": "26-30", "gender": "male", "education": "master", "country": "France", "mode": "debug", "condition": 0, "engagement": "8", "difficulty": "5"}, "trialData": {"rt": 10682, "hit": "1032", "trial": 2, "response_speaker": "machine", "machine_groundtruth": "azure", "imageID": "static/dataset/coco_val_set/1032.jpg", "page_name": "1032_b_0.html/", "counterbalance": 0, "groundtruth": "machine", "human_groundtruth": "", "response_gender": "male"}}, "Trial_163": {"workerID": "debugbhrBH", "workerData": {"native": "no", "age": "26-30", "gender": "male", "education": "master", "country": "France", "mode": "debug", "condition": 0, "engagement": "8", "difficulty": "5"}, "trialData": {"rt": 10182, "hit": "1142", "trial": 3, "response_speaker": "machine", "machine_groundtruth": "", "imageID": "static/dataset/coco_val_set/1142.jpg", "page_name": "1142_a_0.html/", "counterbalance": 0, "groundtruth": "human", "human_groundtruth": "human", "response_gender": "male"}}, "Trial_165": {"workerID": "debugbhrBH", "workerData": {"native": "no", "age": "26-30", "gender": "male", "education": "master", "country": "France", "mode": "debug", "condition": 0, "engagement": "8", "difficulty": "5"}, "trialData": {"rt": 17143, "hit": "699", "trial": 5, "response_speaker": "machine", "machine_groundtruth": "", "imageID": "static/dataset/coco_val_set/699.jpg", "page_name": "699_a_0.html/", "counterbalance": 0, "groundtruth": "human", "human_groundtruth": "human", "response_gender": "male"}}, "Trial_168": {"workerID": "debugbhrBH", "workerData": {"native": "no", "age": "26-30", "gender": "male", "education": "master", "country": "France", "mode": "debug", "condition": 0, "engagement": "8", "difficulty": "5"}, "trialData": {"rt": 6014, "hit": "915", "trial": 8, "response_speaker": "human", "machine_groundtruth": "google", "imageID": "static/dataset/coco_val_set/915.jpg", "page_name": "915_d_0.html/", "counterbalance": 0, "groundtruth": "machine", "human_groundtruth": "", "response_gender": "male"}}, "Trial_170": {"workerID": "debugbhrBH", "workerData": {"native": "no", "age": "26-30", "gender": "male", "education": "master", "country": "France", "mode": "debug", "condition": 0, "engagement": "8", "difficulty": "5"}, "trialData": {"rt": 94079, "hit": "668", "trial": 10, "response_speaker": "human", "machine_groundtruth": "", "imageID": "static/dataset/coco_val_set/668.jpg", "page_name": "668_a_0.html/", "counterbalance": 0, "groundtruth": "human", "human_groundtruth": "human", "response_gender": "male"}}, "Trial_171": {"workerID": "debugbhrBH", "workerData": {"native": "no", "age": "26-30", "gender": "male", "education": "master", "country": "France", "mode": "debug", "condition": 0, "engagement": "8", "difficulty": "5"}, "trialData": {"rt": 10209, "hit": "731", "trial": 11, "response_speaker": "human", "machine_groundtruth": "", "imageID": "static/dataset/coco_val_set/731.jpg", "page_name": "731_a_0.html/", "counterbalance": 0, "groundtruth": "human", "human_groundtruth": "human", "response_gender": "male"}}, "Trial_172": {"workerID": "debugbhrBH", "workerData": {"native": "no", "age": "26-30", "gender": "male", "education": "master", "country": "France", "mode": "debug", "condition": 0, "engagement": "8", "difficulty": "5"}, "trialData": {"rt": 74063, "hit": "382", "trial": 12, "response_speaker": "human", "machine_groundtruth": "google", "imageID": "static/dataset/coco_val_set/382.jpg", "page_name": "382_d_0.html/", "counterbalance": 0, "groundtruth": "machine", "human_groundtruth": "", "response_gender": "male"}}, "Trial_173": {"workerID": "debugbhrBH", "workerData": {"native": "no", "age": "26-30", "gender": "male", "education": "master", "country": "France", "mode": "debug", "condition": 0, "engagement": "8", "difficulty": "5"}, "trialData": {"rt": 28154, "hit": "54", "trial": 13, "response_speaker": "human", "machine_groundtruth": "azure", "imageID": "static/dataset/coco_val_set/54.jpg", "page_name": "54_b_0.html/", "counterbalance": 0, "groundtruth": "machine", "human_groundtruth": "", "response_gender": "male"}}, "Trial_174": {"workerID": "debugbhrBH", "workerData": {"native": "no", "age": "26-30", "gender": "male", "education": "master", "country": "France", "mode": "debug", "condition": 0, "engagement": "8", "difficulty": "5"}, "trialData": {"rt": 8295, "hit": "40", "trial": 14, "response_speaker": "human", "machine_groundtruth": "azure", "imageID": "static/dataset/coco_val_set/40.jpg", "page_name": "40_b_0.html/", "counterbalance": 0, "groundtruth": "machine", "human_groundtruth": "", "response_gender": "male"}}, "Trial_175": {"workerID": "debugbhrBH", "workerData": {"native": "no", "age": "26-30", "gender": "male", "education": "master", "country": "France", "mode": "debug", "condition": 0, "engagement": "8", "difficulty": "5"}, "trialData": {"rt": 7458, "hit": "560", "trial": 15, "response_speaker": "human", "machine_groundtruth": "", "imageID": "static/dataset/coco_val_set/560.jpg", "page_name": "560_a_0.html/", "counterbalance": 0, "groundtruth": "human", "human_groundtruth": "human", "response_gender": "male"}}, "Trial_176": {"workerID": "debugbhrBH", "workerData": {"native": "no", "age": "26-30", "gender": "male", "education": "master", "country": "France", "mode": "debug", "condition": 0, "engagement": "8", "difficulty": "5"}, "trialData": {"rt": 23428, "hit": "614", "trial": 16, "response_speaker": "machine", "machine_groundtruth": "azure", "imageID": "static/dataset/coco_val_set/614.jpg", "page_name": "614_b_0.html/", "counterbalance": 0, "groundtruth": "machine", "human_groundtruth": "", "response_gender": "male"}}, "Trial_178": {"workerID": "debugbhrBH", "workerData": {"native": "no", "age": "26-30", "gender": "male", "education": "master", "country": "France", "mode": "debug", "condition": 0, "engagement": "8", "difficulty": "5"}, "trialData": {"rt": 19885, "hit": "427", "trial": 18, "response_speaker": "human", "machine_groundtruth": "mccq", "imageID": "static/dataset/coco_val_set/427.jpg", "page_name": "427_c_0.html/", "counterbalance": 0, "groundtruth": "machine", "human_groundtruth": "", "response_gender": "male"}}, "Trial_179": {"workerID": "debugbhrBH", "workerData": {"native": "no", "age": "26-30", "gender": "male", "education": "master", "country": "France", "mode": "debug", "condition": 0, "engagement": "8", "difficulty": "5"}, "trialData": {"rt": 16076, "hit": "2", "trial": 19, "response_speaker": "human", "machine_groundtruth": "", "imageID": "static/dataset/coco_val_set/2.jpg", "page_name": "2_a_0.html/", "counterbalance": 0, "groundtruth": "human", "human_groundtruth": "human", "response_gender": "male"}}, "Trial_180": {"workerID": "debugbhrBH", "workerData": {"native": "no", "age": "26-30", "gender": "male", "education": "master", "country": "France", "mode": "debug", "condition": 0, "engagement": "8", "difficulty": "5"}, "trialData": {"rt": 5486, "hit": "793", "trial": 20, "response_speaker": "human", "machine_groundtruth": "google", "imageID": "static/dataset/coco_val_set/793.jpg", "page_name": "793_d_0.html/", "counterbalance": 0, "groundtruth": "machine", "human_groundtruth": "", "response_gender": "male"}}, "Trial_181": {"workerID": "debugbhrBH", "workerData": {"native": "no", "age": "26-30", "gender": "male", "education": "master", "country": "France", "mode": "debug", "condition": 0, "engagement": "8", "difficulty": "5"}, "trialData": {"rt": 5752, "hit": "1157", "trial": 21, "response_speaker": "human", "machine_groundtruth": "", "imageID": "static/dataset/coco_val_set/1157.jpg", "page_name": "1157_a_0.html/", "counterbalance": 0, "groundtruth": "human", "human_groundtruth": "human", "response_gender": "male"}}, "Trial_182": {"workerID": "debugbhrBH", "workerData": {"native": "no", "age": "26-30", "gender": "male", "education": "master", "country": "France", "mode": "debug", "condition": 0, "engagement": "8", "difficulty": "5"}, "trialData": {"rt": 7356, "hit": "352", "trial": 22, "response_speaker": "human", "machine_groundtruth": "google", "imageID": "static/dataset/coco_val_set/352.jpg", "page_name": "352_d_0.html/", "counterbalance": 0, "groundtruth": "machine", "human_groundtruth": "", "response_gender": "male"}}, "Trial_183": {"workerID": "debugbhrBH", "workerData": {"native": "no", "age": "26-30", "gender": "male", "education": "master", "country": "France", "mode": "debug", "condition": 0, "engagement": "8", "difficulty": "5"}, "trialData": {"rt": 6338, "hit": "768", "trial": 23, "response_speaker": "machine", "machine_groundtruth": "", "imageID": "static/dataset/coco_val_set/768.jpg", "page_name": "768_a_0.html/", "counterbalance": 0, "groundtruth": "human", "human_groundtruth": "human", "response_gender": "male"}}, "Trial_184": {"workerID": "debugbhrBH", "workerData": {"native": "no", "age": "26-30", "gender": "male", "education": "master", "country": "France", "mode": "debug", "condition": 0, "engagement": "8", "difficulty": "5"}, "trialData": {"rt": 7307, "hit": "648", "trial": 24, "response_speaker": "machine", "machine_groundtruth": "google", "imageID": "static/dataset/coco_val_set/648.jpg", "page_name": "648_d_0.html/", "counterbalance": 0, "groundtruth": "machine", "human_groundtruth": "", "response_gender": "male"}}, "Trial_185": {"workerID": "debugbhrBH", "workerData": {"native": "no", "age": "26-30", "gender": "male", "education": "master", "country": "France", "mode": "debug", "condition": 0, "engagement": "8", "difficulty": "5"}, "trialData": {"rt": 48881, "hit": "444", "trial": 25, "response_speaker": "machine", "machine_groundtruth": "", "imageID": "static/dataset/coco_val_set/444.jpg", "page_name": "444_a_0.html/", "counterbalance": 0, "groundtruth": "human", "human_groundtruth": "human", "response_gender": "male"}}, "Trial_186": {"workerID": "debugbhrBH", "workerData": {"native": "no", "age": "26-30", "gender": "male", "education": "master", "country": "France", "mode": "debug", "condition": 0, "engagement": "8", "difficulty": "5"}, "trialData": {"rt": 6728, "hit": "209", "trial": 26, "response_speaker": "machine", "machine_groundtruth": "azure", "imageID": "static/dataset/coco_val_set/209.jpg", "page_name": "209_b_0.html/", "counterbalance": 0, "groundtruth": "machine", "human_groundtruth": "", "response_gender": "male"}}, "Trial_187": {"workerID": "debugbhrBH", "workerData": {"native": "no", "age": "26-30", "gender": "male", "education": "master", "country": "France", "mode": "debug", "condition": 0, "engagement": "8", "difficulty": "5"}, "trialData": {"rt": 5507, "hit": "253", "trial": 27, "response_speaker": "human", "machine_groundtruth": "mccq", "imageID": "static/dataset/coco_val_set/253.jpg", "page_name": "253_c_0.html/", "counterbalance": 0, "groundtruth": "machine", "human_groundtruth": "", "response_gender": "male"}}, "Trial_188": {"workerID": "debugbhrBH", "workerData": {"native": "no", "age": "26-30", "gender": "male", "education": "master", "country": "France", "mode": "debug", "condition": 0, "engagement": "8", "difficulty": "5"}, "trialData": {"rt": 6989, "hit": "899", "trial": 28, "response_speaker": "machine", "machine_groundtruth": "", "imageID": "static/dataset/coco_val_set/899.jpg", "page_name": "899_a_0.html/", "counterbalance": 0, "groundtruth": "human", "human_groundtruth": "human", "response_gender": "male"}}, "Trial_190": {"workerID": "debugbhrBH", "workerData": {"native": "no", "age": "26-30", "gender": "male", "education": "master", "country": "France", "mode": "debug", "condition": 0, "engagement": "8", "difficulty": "5"}, "trialData": {"rt": 6318, "hit": "1102", "trial": 30, "response_speaker": "human", "machine_groundtruth": "", "imageID": "static/dataset/coco_val_set/1102.jpg", "page_name": "1102_a_0.html/", "counterbalance": 0, "groundtruth": "human", "human_groundtruth": "human", "response_gender": "male"}}, "Trial_191": {"workerID": "debugbhrBH", "workerData": {"native": "no", "age": "26-30", "gender": "male", "education": "master", "country": "France", "mode": "debug", "condition": 0, "engagement": "8", "difficulty": "5"}, "trialData": {"rt": 9971, "hit": "1064", "trial": 31, "response_speaker": "machine", "machine_groundtruth": "azure", "imageID": "static/dataset/coco_val_set/1064.jpg", "page_name": "1064_b_0.html/", "counterbalance": 0, "groundtruth": "machine", "human_groundtruth": "", "response_gender": "male"}}, "Trial_192": {"workerID": "debugbhrBH", "workerData": {"native": "no", "age": "26-30", "gender": "male", "education": "master", "country": "France", "mode": "debug", "condition": 0, "engagement": "8", "difficulty": "5"}, "trialData": {"rt": 7155, "hit": "334", "trial": 32, "response_speaker": "machine", "machine_groundtruth": "", "imageID": "static/dataset/coco_val_set/334.jpg", "page_name": "334_a_0.html/", "counterbalance": 0, "groundtruth": "human", "human_groundtruth": "human", "response_gender": "male"}}, "Trial_193": {"workerID": "debugbhrBH", "workerData": {"native": "no", "age": "26-30", "gender": "male", "education": "master", "country": "France", "mode": "debug", "condition": 0, "engagement": "8", "difficulty": "5"}, "trialData": {"rt": 5356, "hit": "764", "trial": 33, "response_speaker": "human", "machine_groundtruth": "", "imageID": "static/dataset/coco_val_set/764.jpg", "page_name": "764_a_0.html/", "counterbalance": 0, "groundtruth": "human", "human_groundtruth": "human", "response_gender": "male"}}, "Trial_194": {"workerID": "debugbhrBH", "workerData": {"native": "no", "age": "26-30", "gender": "male", "education": "master", "country": "France", "mode": "debug", "condition": 0, "engagement": "8", "difficulty": "5"}, "trialData": {"rt": 186593, "hit": "701", "trial": 34, "response_speaker": "machine", "machine_groundtruth": "google", "imageID": "static/dataset/coco_val_set/701.jpg", "page_name": "701_d_0.html/", "counterbalance": 0, "groundtruth": "machine", "human_groundtruth": "", "response_gender": "male"}}, "Trial_195": {"workerID": "debugbhrBH", "workerData": {"native": "no", "age": "26-30", "gender": "male", "education": "master", "country": "France", "mode": "debug", "condition": 0, "engagement": "8", "difficulty": "5"}, "trialData": {"rt": 25151, "hit": "355", "trial": 35, "response_speaker": "human", "machine_groundtruth": "", "imageID": "static/dataset/coco_val_set/355.jpg", "page_name": "355_a_0.html/", "counterbalance": 0, "groundtruth": "human", "human_groundtruth": "human", "response_gender": "male"}}, "Trial_196": {"workerID": "debugbhrBH", "workerData": {"native": "no", "age": "26-30", "gender": "male", "education": "master", "country": "France", "mode": "debug", "condition": 0, "engagement": "8", "difficulty": "5"}, "trialData": {"rt": 28939, "hit": "146", "trial": 36, "response_speaker": "human", "machine_groundtruth": "google", "imageID": "static/dataset/coco_val_set/146.jpg", "page_name": "146_d_0.html/", "counterbalance": 0, "groundtruth": "machine", "human_groundtruth": "", "response_gender": "male"}}, "Trial_197": {"workerID": "debugbhrBH", "workerData": {"native": "no", "age": "26-30", "gender": "male", "education": "master", "country": "France", "mode": "debug", "condition": 0, "engagement": "8", "difficulty": "5"}, "trialData": {"rt": 7212, "hit": "1004", "trial": 37, "response_speaker": "human", "machine_groundtruth": "google", "imageID": "static/dataset/coco_val_set/1004.jpg", "page_name": "1004_d_0.html/", "counterbalance": 0, "groundtruth": "machine", "human_groundtruth": "", "response_gender": "male"}}, "Trial_198": {"workerID": "debugbhrBH", "workerData": {"native": "no", "age": "26-30", "gender": "male", "education": "master", "country": "France", "mode": "debug", "condition": 0, "engagement": "8", "difficulty": "5"}, "trialData": {"rt": 7708, "hit": "66", "trial": 38, "response_speaker": "machine", "machine_groundtruth": "azure", "imageID": "static/dataset/coco_val_set/66.jpg", "page_name": "66_b_0.html/", "counterbalance": 0, "groundtruth": "machine", "human_groundtruth": "", "response_gender": "male"}}, "Trial_199": {"workerID": "debugbhrBH", "workerData": {"native": "no", "age": "26-30", "gender": "male", "education": "master", "country": "France", "mode": "debug", "condition": 0, "engagement": "8", "difficulty": "5"}, "trialData": {"rt": 9039, "hit": "979", "trial": 39, "response_speaker": "machine", "machine_groundtruth": "", "imageID": "static/dataset/coco_val_set/979.jpg", "page_name": "979_a_0.html/", "counterbalance": 0, "groundtruth": "human", "human_groundtruth": "human", "response_gender": "male"}}, "Trial_200": {"workerID": "debugbhrBH", "workerData": {"native": "no", "age": "26-30", "gender": "male", "education": "master", "country": "France", "mode": "debug", "condition": 0, "engagement": "8", "difficulty": "5"}, "trialData": {"rt": 12448, "hit": "279", "trial": 40, "response_speaker": "human", "machine_groundtruth": "", "imageID": "static/dataset/coco_val_set/279.jpg", "page_name": "279_a_0.html/", "counterbalance": 0, "groundtruth": "human", "human_groundtruth": "human", "response_gender": "male"}}, "Trial_202": {"workerID": "debugAaLZm", "workerData": {"native": "yes", "age": "21-25", "gender": "male", "education": "bachelor", "country": "Italy", "mode": "debug", "condition": 0, "engagement": "7", "difficulty": "8"}, "trialData": {"rt": 19088, "hit": "1045", "trial": 2, "response_speaker": "machine", "machine_groundtruth": "azure", "imageID": "static/dataset/coco_val_set/1045.jpg", "page_name": "1045_b_0.html/", "counterbalance": 0, "groundtruth": "machine", "human_groundtruth": "", "response_gender": "male"}}, "Trial_203": {"workerID": "debugAaLZm", "workerData": {"native": "yes", "age": "21-25", "gender": "male", "education": "bachelor", "country": "Italy", "mode": "debug", "condition": 0, "engagement": "7", "difficulty": "8"}, "trialData": {"rt": 24989, "hit": "374", "trial": 3, "response_speaker": "human", "machine_groundtruth": "", "imageID": "static/dataset/coco_val_set/374.jpg", "page_name": "374_a_0.html/", "counterbalance": 0, "groundtruth": "human", "human_groundtruth": "human", "response_gender": "female"}}, "Trial_204": {"workerID": "debugAaLZm", "workerData": {"native": "yes", "age": "21-25", "gender": "male", "education": "bachelor", "country": "Italy", "mode": "debug", "condition": 0, "engagement": "7", "difficulty": "8"}, "trialData": {"rt": 26976, "hit": "236", "trial": 4, "response_speaker": "machine", "machine_groundtruth": "", "imageID": "static/dataset/coco_val_set/236.jpg", "page_name": "236_a_0.html/", "counterbalance": 0, "groundtruth": "human", "human_groundtruth": "human", "response_gender": "male"}}, "Trial_205": {"workerID": "debugAaLZm", "workerData": {"native": "yes", "age": "21-25", "gender": "male", "education": "bachelor", "country": "Italy", "mode": "debug", "condition": 0, "engagement": "7", "difficulty": "8"}, "trialData": {"rt": 24757, "hit": "182", "trial": 5, "response_speaker": "machine", "machine_groundtruth": "google", "imageID": "static/dataset/coco_val_set/182.jpg", "page_name": "182_d_0.html/", "counterbalance": 0, "groundtruth": "machine", "human_groundtruth": "", "response_gender": "male"}}, "Trial_206": {"workerID": "debugAaLZm", "workerData": {"native": "yes", "age": "21-25", "gender": "male", "education": "bachelor", "country": "Italy", "mode": "debug", "condition": 0, "engagement": "7", "difficulty": "8"}, "trialData": {"rt": 19572, "hit": "817", "trial": 6, "response_speaker": "human", "machine_groundtruth": "", "imageID": "static/dataset/coco_val_set/817.jpg", "page_name": "817_a_0.html/", "counterbalance": 0, "groundtruth": "human", "human_groundtruth": "human", "response_gender": "male"}}, "Trial_208": {"workerID": "debugAaLZm", "workerData": {"native": "yes", "age": "21-25", "gender": "male", "education": "bachelor", "country": "Italy", "mode": "debug", "condition": 0, "engagement": "7", "difficulty": "8"}, "trialData": {"rt": 13419, "hit": "714", "trial": 8, "response_speaker": "human", "machine_groundtruth": "", "imageID": "static/dataset/coco_val_set/714.jpg", "page_name": "714_a_0.html/", "counterbalance": 0, "groundtruth": "human", "human_groundtruth": "human", "response_gender": "female"}}, "Trial_209": {"workerID": "debugAaLZm", "workerData": {"native": "yes", "age": "21-25", "gender": "male", "education": "bachelor", "country": "Italy", "mode": "debug", "condition": 0, "engagement": "7", "difficulty": "8"}, "trialData": {"rt": 15316, "hit": "641", "trial": 9, "response_speaker": "machine", "machine_groundtruth": "mccq", "imageID": "static/dataset/coco_val_set/641.jpg", "page_name": "641_c_0.html/", "counterbalance": 0, "groundtruth": "machine", "human_groundtruth": "", "response_gender": "male"}}, "Trial_210": {"workerID": "debugAaLZm", "workerData": {"native": "yes", "age": "21-25", "gender": "male", "education": "bachelor", "country": "Italy", "mode": "debug", "condition": 0, "engagement": "7", "difficulty": "8"}, "trialData": {"rt": 10142, "hit": "774", "trial": 10, "response_speaker": "human", "machine_groundtruth": "", "imageID": "static/dataset/coco_val_set/774.jpg", "page_name": "774_a_0.html/", "counterbalance": 0, "groundtruth": "human", "human_groundtruth": "human", "response_gender": "male"}}, "Trial_211": {"workerID": "debugAaLZm", "workerData": {"native": "yes", "age": "21-25", "gender": "male", "education": "bachelor", "country": "Italy", "mode": "debug", "condition": 0, "engagement": "7", "difficulty": "8"}, "trialData": {"rt": 10211, "hit": "811", "trial": 11, "response_speaker": "machine", "machine_groundtruth": "google", "imageID": "static/dataset/coco_val_set/811.jpg", "page_name": "811_d_0.html/", "counterbalance": 0, "groundtruth": "machine", "human_groundtruth": "", "response_gender": "male"}}, "Trial_212": {"workerID": "debugAaLZm", "workerData": {"native": "yes", "age": "21-25", "gender": "male", "education": "bachelor", "country": "Italy", "mode": "debug", "condition": 0, "engagement": "7", "difficulty": "8"}, "trialData": {"rt": 9429, "hit": "36", "trial": 12, "response_speaker": "machine", "machine_groundtruth": "google", "imageID": "static/dataset/coco_val_set/36.jpg", "page_name": "36_d_0.html/", "counterbalance": 0, "groundtruth": "machine", "human_groundtruth": "", "response_gender": "male"}}, "Trial_214": {"workerID": "debugAaLZm", "workerData": {"native": "yes", "age": "21-25", "gender": "male", "education": "bachelor", "country": "Italy", "mode": "debug", "condition": 0, "engagement": "7", "difficulty": "8"}, "trialData": {"rt": 9050, "hit": "708", "trial": 14, "response_speaker": "human", "machine_groundtruth": "", "imageID": "static/dataset/coco_val_set/708.jpg", "page_name": "708_a_0.html/", "counterbalance": 0, "groundtruth": "human", "human_groundtruth": "human", "response_gender": "female"}}, "Trial_215": {"workerID": "debugAaLZm", "workerData": {"native": "yes", "age": "21-25", "gender": "male", "education": "bachelor", "country": "Italy", "mode": "debug", "condition": 0, "engagement": "7", "difficulty": "8"}, "trialData": {"rt": 15421, "hit": "997", "trial": 15, "response_speaker": "human", "machine_groundtruth": "", "imageID": "static/dataset/coco_val_set/997.jpg", "page_name": "997_a_0.html/", "counterbalance": 0, "groundtruth": "human", "human_groundtruth": "human", "response_gender": "male"}}, "Trial_216": {"workerID": "debugAaLZm", "workerData": {"native": "yes", "age": "21-25", "gender": "male", "education": "bachelor", "country": "Italy", "mode": "debug", "condition": 0, "engagement": "7", "difficulty": "8"}, "trialData": {"rt": 9069, "hit": "801", "trial": 16, "response_speaker": "human", "machine_groundtruth": "mccq", "imageID": "static/dataset/coco_val_set/801.jpg", "page_name": "801_c_0.html/", "counterbalance": 0, "groundtruth": "machine", "human_groundtruth": "", "response_gender": "female"}}, "Trial_217": {"workerID": "debugAaLZm", "workerData": {"native": "yes", "age": "21-25", "gender": "male", "education": "bachelor", "country": "Italy", "mode": "debug", "condition": 0, "engagement": "7", "difficulty": "8"}, "trialData": {"rt": 20505, "hit": "381", "trial": 17, "response_speaker": "human", "machine_groundtruth": "", "imageID": "static/dataset/coco_val_set/381.jpg", "page_name": "381_a_0.html/", "counterbalance": 0, "groundtruth": "human", "human_groundtruth": "human", "response_gender": "male"}}, "Trial_219": {"workerID": "debugAaLZm", "workerData": {"native": "yes", "age": "21-25", "gender": "male", "education": "bachelor", "country": "Italy", "mode": "debug", "condition": 0, "engagement": "7", "difficulty": "8"}, "trialData": {"rt": 12847, "hit": "363", "trial": 19, "response_speaker": "human", "machine_groundtruth": "mccq", "imageID": "static/dataset/coco_val_set/363.jpg", "page_name": "363_c_0.html/", "counterbalance": 0, "groundtruth": "machine", "human_groundtruth": "", "response_gender": "male"}}, "Trial_221": {"workerID": "debugAaLZm", "workerData": {"native": "yes", "age": "21-25", "gender": "male", "education": "bachelor", "country": "Italy", "mode": "debug", "condition": 0, "engagement": "7", "difficulty": "8"}, "trialData": {"rt": 8731, "hit": "15", "trial": 21, "response_speaker": "machine", "machine_groundtruth": "", "imageID": "static/dataset/coco_val_set/15.jpg", "page_name": "15_a_0.html/", "counterbalance": 0, "groundtruth": "human", "human_groundtruth": "human", "response_gender": "female"}}, "Trial_222": {"workerID": "debugAaLZm", "workerData": {"native": "yes", "age": "21-25", "gender": "male", "education": "bachelor", "country": "Italy", "mode": "debug", "condition": 0, "engagement": "7", "difficulty": "8"}, "trialData": {"rt": 12693, "hit": "322", "trial": 22, "response_speaker": "human", "machine_groundtruth": "google", "imageID": "static/dataset/coco_val_set/322.jpg", "page_name": "322_d_0.html/", "counterbalance": 0, "groundtruth": "machine", "human_groundtruth": "", "response_gender": "male"}}, "Trial_223": {"workerID": "debugAaLZm", "workerData": {"native": "yes", "age": "21-25", "gender": "male", "education": "bachelor", "country": "Italy", "mode": "debug", "condition": 0, "engagement": "7", "difficulty": "8"}, "trialData": {"rt": 9599, "hit": "667", "trial": 23, "response_speaker": "machine", "machine_groundtruth": "mccq", "imageID": "static/dataset/coco_val_set/667.jpg", "page_name": "667_c_0.html/", "counterbalance": 0, "groundtruth": "machine", "human_groundtruth": "", "response_gender": "male"}}, "Trial_224": {"workerID": "debugAaLZm", "workerData": {"native": "yes", "age": "21-25", "gender": "male", "education": "bachelor", "country": "Italy", "mode": "debug", "condition": 0, "engagement": "7", "difficulty": "8"}, "trialData": {"rt": 14340, "hit": "584", "trial": 24, "response_speaker": "human", "machine_groundtruth": "azure", "imageID": "static/dataset/coco_val_set/584.jpg", "page_name": "584_b_0.html/", "counterbalance": 0, "groundtruth": "machine", "human_groundtruth": "", "response_gender": "male"}}, "Trial_225": {"workerID": "debugAaLZm", "workerData": {"native": "yes", "age": "21-25", "gender": "male", "education": "bachelor", "country": "Italy", "mode": "debug", "condition": 0, "engagement": "7", "difficulty": "8"}, "trialData": {"rt": 9258, "hit": "908", "trial": 25, "response_speaker": "machine", "machine_groundtruth": "google", "imageID": "static/dataset/coco_val_set/908.jpg", "page_name": "908_d_0.html/", "counterbalance": 0, "groundtruth": "machine", "human_groundtruth": "", "response_gender": "male"}}, "Trial_226": {"workerID": "debugAaLZm", "workerData": {"native": "yes", "age": "21-25", "gender": "male", "education": "bachelor", "country": "Italy", "mode": "debug", "condition": 0, "engagement": "7", "difficulty": "8"}, "trialData": {"rt": 9533, "hit": "534", "trial": 26, "response_speaker": "machine", "machine_groundtruth": "mccq", "imageID": "static/dataset/coco_val_set/534.jpg", "page_name": "534_c_0.html/", "counterbalance": 0, "groundtruth": "machine", "human_groundtruth": "", "response_gender": "female"}}, "Trial_227": {"workerID": "debugAaLZm", "workerData": {"native": "yes", "age": "21-25", "gender": "male", "education": "bachelor", "country": "Italy", "mode": "debug", "condition": 0, "engagement": "7", "difficulty": "8"}, "trialData": {"rt": 9411, "hit": "43", "trial": 27, "response_speaker": "machine", "machine_groundtruth": "", "imageID": "static/dataset/coco_val_set/43.jpg", "page_name": "43_a_0.html/", "counterbalance": 0, "groundtruth": "human", "human_groundtruth": "human", "response_gender": "male"}}, "Trial_228": {"workerID": "debugAaLZm", "workerData": {"native": "yes", "age": "21-25", "gender": "male", "education": "bachelor", "country": "Italy", "mode": "debug", "condition": 0, "engagement": "7", "difficulty": "8"}, "trialData": {"rt": 7152, "hit": "419", "trial": 28, "response_speaker": "machine", "machine_groundtruth": "azure", "imageID": "static/dataset/coco_val_set/419.jpg", "page_name": "419_b_0.html/", "counterbalance": 0, "groundtruth": "machine", "human_groundtruth": "", "response_gender": "male"}}, "Trial_229": {"workerID": "debugAaLZm", "workerData": {"native": "yes", "age": "21-25", "gender": "male", "education": "bachelor", "country": "Italy", "mode": "debug", "condition": 0, "engagement": "7", "difficulty": "8"}, "trialData": {"rt": 8768, "hit": "1010", "trial": 29, "response_speaker": "human", "machine_groundtruth": "", "imageID": "static/dataset/coco_val_set/1010.jpg", "page_name": "1010_a_0.html/", "counterbalance": 0, "groundtruth": "human", "human_groundtruth": "human", "response_gender": "male"}}, "Trial_230": {"workerID": "debugAaLZm", "workerData": {"native": "yes", "age": "21-25", "gender": "male", "education": "bachelor", "country": "Italy", "mo