{"AIexperts": {"Trial_1": {"workerID": "debug6yho2", "workerData": {"native": "no", "age": "26-30", "gender": "female", "education": "pg", "country": "China", "engagement": "5", "difficulty": "5", "imagetype": "in-domain"}, "trialData": {"phase": "TEST", "imageID": "/static/images/imgset/0909.jpg", "caption": "a red and gold bracelet", "groundtruth": "machine", "machine_groundtruth": "microsoft_api", "human_groundtruth": "", "response_speaker": "machine", "response_gender": "male", "hit": true, "counterbalance": 399, "rt": 18069, "trial": 1}}, "Trial_2": {"workerID": "debug6yho2", "workerData": {"native": "no", "age": "26-30", "gender": "female", "education": "pg", "country": "China", "engagement": "5", "difficulty": "5", "imagetype": "in-domain"}, "trialData": {"phase": "TEST", "imageID": "/static/images/imgset/0932.jpg", "caption": "a bunch of different colored travel bags ", "groundtruth": "human", "machine_groundtruth": "", "human_groundtruth": "Participant_190", "response_speaker": "human", "response_gender": "male", "hit": true, "counterbalance": 399, "rt": 8915, "trial": 2}}, "Trial_3": {"workerID": "debug6yho2", "workerData": {"native": "no", "age": "26-30", "gender": "female", "education": "pg", "country": "China", "engagement": "5", "difficulty": "5", "imagetype": "in-domain"}, "trialData": {"phase": "TEST", "imageID": "/static/images/imgset/0491.jpg", "caption": "two little boys and a little girl sit in a row eating lunch outside on a sunny day", "groundtruth": "human", "machine_groundtruth": "", "human_groundtruth": "Participant_9", "response_speaker": "human", "response_gender": "female", "hit": true, "counterbalance": 399, "rt": 9835, "trial": 3}}, "Trial_4": {"workerID": "debug6yho2", "workerData": {"native": "no", "age": "26-30", "gender": "female", "education": "pg", "country": "China", "engagement": "5", "difficulty": "5", "imagetype": "in-domain"}, "trialData": {"phase": "TEST", "imageID": "/static/images/imgset/0723.jpg", "caption": "a cat is laying on top of a metal grate while it sleeps", "groundtruth": "human", "machine_groundtruth": "", "human_groundtruth": "Participant_184", "response_speaker": "machine", "response_gender": "male", "hit": true, "counterbalance": 399, "rt": 10341, "trial": 4}}, "Trial_5": {"workerID": "debug6yho2", "workerData": {"native": "no", "age": "26-30", "gender": "female", "education": "pg", "country": "China", "engagement": "5", "difficulty": "5", "imagetype": "in-domain"}, "trialData": {"phase": "TEST", "imageID": "/static/images/imgset/0368.jpg", "caption": "a man in military fatigues using a mirror to look under a truck", "groundtruth": "human", "machine_groundtruth": "", "human_groundtruth": "Participant_167", "response_speaker": "machine", "response_gender": "male", "hit": true, "counterbalance": 399, "rt": 42982, "trial": 5}}, "Trial_6": {"workerID": "debug6yho2", "workerData": {"native": "no", "age": "26-30", "gender": "female", "education": "pg", "country": "China", "engagement": "5", "difficulty": "5", "imagetype": "in-domain"}, "trialData": {"phase": "TEST", "imageID": "/static/images/imgset/0662.jpg", "caption": "a red and white trolley car driving down a street", "groundtruth": "machine", "machine_groundtruth": "ofa", "human_groundtruth": "", "response_speaker": "human", "response_gender": "female", "hit": true, "counterbalance": 399, "rt": 6906, "trial": 6}}, "Trial_7": {"workerID": "debug6yho2", "workerData": {"native": "no", "age": "26-30", "gender": "female", "education": "pg", "country": "China", "engagement": "5", "difficulty": "5", "imagetype": "in-domain"}, "trialData": {"phase": "TEST", "imageID": "/static/images/imgset/0051.jpg", "caption": "a woman talking on a cell phone", "groundtruth": "machine", "machine_groundtruth": "microsoft_api", "human_groundtruth": "", "response_speaker": "machine", "response_gender": "male", "hit": true, "counterbalance": 399, "rt": 11183, "trial": 7}}, "Trial_8": {"workerID": "debug6yho2", "workerData": {"native": "no", "age": "26-30", "gender": "female", "education": "pg", "country": "China", "engagement": "5", "difficulty": "5", "imagetype": "in-domain"}, "trialData": {"phase": "TEST", "imageID": "/static/images/imgset/0346.jpg", "caption": "a black convertible car is parked on the side of the road", "groundtruth": "machine", "machine_groundtruth": "blip", "human_groundtruth": "", "response_speaker": "machine", "response_gender": "male", "hit": true, "counterbalance": 399, "rt": 13362, "trial": 8}}, "Trial_9": {"workerID": "debug6yho2", "workerData": {"native": "no", "age": "26-30", "gender": "female", "education": "pg", "country": "China", "engagement": "5", "difficulty": "5", "imagetype": "in-domain"}, "trialData": {"phase": "TEST", "imageID": "/static/images/imgset/0347.jpg", "caption": "a man in a dark suit is standing outdoors", "groundtruth": "human", "machine_groundtruth": "", "human_groundtruth": "Participant_8", "response_speaker": "human", "response_gender": "male", "hit": true, "counterbalance": 399, "rt": 8649, "trial": 9}}, "Trial_10": {"workerID": "debug6yho2", "workerData": {"native": "no", "age": "26-30", "gender": "female", "education": "pg", "country": "China", "engagement": "5", "difficulty": "5", "imagetype": "in-domain"}, "trialData": {"phase": "TEST", "imageID": "/static/images/imgset/0740.jpg", "caption": "a black and white image of a toilet in a public restroom", "groundtruth": "machine", "machine_groundtruth": "clipcap", "human_groundtruth": "", "response_speaker": "machine", "response_gender": "male", "hit": true, "counterbalance": 399, "rt": 11467, "trial": 10}}, "Trial_11": {"workerID": "debug6yho2", "workerData": {"native": "no", "age": "26-30", "gender": "female", "education": "pg", "country": "China", "engagement": "5", "difficulty": "5", "imagetype": "in-domain"}, "trialData": {"phase": "TEST", "imageID": "/static/images/imgset/0065.jpg", "caption": "a man is putting a baseball bat into a machine", "groundtruth": "machine", "machine_groundtruth": "ofa", "human_groundtruth": "", "response_speaker": "human", "response_gender": "male", "hit": true, "counterbalance": 399, "rt": 8736, "trial": 11}}, "Trial_12": {"workerID": "debug6yho2", "workerData": {"native": "no", "age": "26-30", "gender": "female", "education": "pg", "country": "China", "engagement": "5", "difficulty": "5", "imagetype": "in-domain"}, "trialData": {"phase": "TEST", "imageID": "/static/images/imgset/0065.jpg", "caption": "a man using an autographed baseball bat to brew beverages", "groundtruth": "human", "machine_groundtruth": "", "human_groundtruth": "Participant_201", "response_speaker": "machine", "response_gender": "male", "hit": true, "counterbalance": 399, "rt": 6904, "trial": 12}}, "Trial_13": {"workerID": "debug6yho2", "workerData": {"native": "no", "age": "26-30", "gender": "female", "education": "pg", "country": "China", "engagement": "5", "difficulty": "5", "imagetype": "in-domain"}, "trialData": {"phase": "TEST", "imageID": "/static/images/imgset/0286.jpg", "caption": "a woman that is falling down wearing a green dress", "groundtruth": "human", "machine_groundtruth": "", "human_groundtruth": "Participant_228", "response_speaker": "machine", "response_gender": "female", "hit": true, "counterbalance": 399, "rt": 13211, "trial": 13}}, "Trial_14": {"workerID": "debug6yho2", "workerData": {"native": "no", "age": "26-30", "gender": "female", "education": "pg", "country": "China", "engagement": "5", "difficulty": "5", "imagetype": "in-domain"}, "trialData": {"phase": "TEST", "imageID": "/static/images/imgset/0116.jpg", "caption": "a passenger airplane flying high in the sky", "groundtruth": "human", "machine_groundtruth": "", "human_groundtruth": "Participant_98", "response_speaker": "machine", "response_gender": "male", "hit": true, "counterbalance": 399, "rt": 6731, "trial": 14}}, "Trial_15": {"workerID": "debug6yho2", "workerData": {"native": "no", "age": "26-30", "gender": "female", "education": "pg", "country": "China", "engagement": "5", "difficulty": "5", "imagetype": "in-domain"}, "trialData": {"phase": "TEST", "imageID": "/static/images/imgset/0565.jpg", "caption": "a woman sitting next to a boy on a couch", "groundtruth": "machine", "machine_groundtruth": "blip", "human_groundtruth": "", "response_speaker": "machine", "response_gender": "male", "hit": true, "counterbalance": 399, "rt": 6598, "trial": 15}}, "Trial_16": {"workerID": "debug6yho2", "workerData": {"native": "no", "age": "26-30", "gender": "female", "education": "pg", "country": "China", "engagement": "5", "difficulty": "5", "imagetype": "in-domain"}, "trialData": {"phase": "TEST", "imageID": "/static/images/imgset/0995.jpg", "caption": "a hamburger with lettuce, tomato and lettuce on a blue plate", "groundtruth": "machine", "machine_groundtruth": "git", "human_groundtruth": "", "response_speaker": "human", "response_gender": "female", "hit": true, "counterbalance": 399, "rt": 10642, "trial": 16}}, "Trial_17": {"workerID": "debug6yho2", "workerData": {"native": "no", "age": "26-30", "gender": "female", "education": "pg", "country": "China", "engagement": "5", "difficulty": "5", "imagetype": "in-domain"}, "trialData": {"phase": "TEST", "imageID": "/static/images/imgset/0422.jpg", "caption": "a man putting on his jacket standing next to a car", "groundtruth": "human", "machine_groundtruth": "", "human_groundtruth": "Participant_72", "response_speaker": "machine", "response_gender": "male", "hit": true, "counterbalance": 399, "rt": 9150, "trial": 17}}, "Trial_18": {"workerID": "debug6yho2", "workerData": {"native": "no", "age": "26-30", "gender": "female", "education": "pg", "country": "China", "engagement": "5", "difficulty": "5", "imagetype": "in-domain"}, "trialData": {"phase": "TEST", "imageID": "/static/images/imgset/0364.jpg", "caption": "a group of people on skis in the snow", "groundtruth": "machine", "machine_groundtruth": "git", "human_groundtruth": "", "response_speaker": "human", "response_gender": "male", "hit": true, "counterbalance": 399, "rt": 5333, "trial": 18}}, "Trial_19": {"workerID": "debug6yho2", "workerData": {"native": "no", "age": "26-30", "gender": "female", "education": "pg", "country": "China", "engagement": "5", "difficulty": "5", "imagetype": "in-domain"}, "trialData": {"phase": "TEST", "imageID": "/static/images/imgset/0799.jpg", "caption": "a woman wearing red heels holding a pair of red shoes", "groundtruth": "machine", "machine_groundtruth": "clipcap", "human_groundtruth": "", "response_speaker": "machine", "response_gender": "male", "hit": true, "counterbalance": 399, "rt": 8077, "trial": 19}}, "Trial_20": {"workerID": "debug6yho2", "workerData": {"native": "no", "age": "26-30", "gender": "female", "education": "pg", "country": "China", "engagement": "5", "difficulty": "5", "imagetype": "in-domain"}, "trialData": {"phase": "TEST", "imageID": "/static/images/imgset/0369.jpg", "caption": "books laying on a counter or table", "groundtruth": "human", "machine_groundtruth": "", "human_groundtruth": "Participant_40", "response_speaker": "human", "response_gender": "female", "hit": true, "counterbalance": 399, "rt": 13080, "trial": 20}}, "Trial_21": {"workerID": "debugYoNBx", "workerData": {"native": "no", "age": "21-25", "gender": "male", "education": "master", "country": "India", "engagement": "5", "difficulty": "5", "imagetype": "near-domain"}, "trialData": {"phase": "TEST", "imageID": "/static/images/imgset/0457.jpg", "caption": "a young boy flying a kite at the beach", "groundtruth": "human", "machine_groundtruth": "", "human_groundtruth": "Participant_32", "response_speaker": "human", "response_gender": "male", "hit": true, "counterbalance": 158, "rt": 21841, "trial": 1}}, "Trial_22": {"workerID": "debugYoNBx", "workerData": {"native": "no", "age": "21-25", "gender": "male", "education": "master", "country": "India", "engagement": "5", "difficulty": "5", "imagetype": "near-domain"}, "trialData": {"phase": "TEST", "imageID": "/static/images/imgset/0966.jpg", "caption": "a tree house in the middle of a forest", "groundtruth": "machine", "machine_groundtruth": "blip", "human_groundtruth": "", "response_speaker": "human", "response_gender": "female", "hit": true, "counterbalance": 158, "rt": 14767, "trial": 2}}, "Trial_23": {"workerID": "debugYoNBx", "workerData": {"native": "no", "age": "21-25", "gender": "male", "education": "master", "country": "India", "engagement": "5", "difficulty": "5", "imagetype": "near-domain"}, "trialData": {"phase": "TEST", "imageID": "/static/images/imgset/0331.jpg", "caption": "two hockey players competing for the puck in front of the goalie", "groundtruth": "human", "machine_groundtruth": "", "human_groundtruth": "Participant_127", "response_speaker": "machine", "response_gender": "male", "hit": true, "counterbalance": 158, "rt": 7148, "trial": 3}}, "Trial_24": {"workerID": "debugYoNBx", "workerData": {"native": "no", "age": "21-25", "gender": "male", "education": "master", "country": "India", "engagement": "5", "difficulty": "5", "imagetype": "near-domain"}, "trialData": {"phase": "TEST", "imageID": "/static/images/imgset/0919.jpg", "caption": "the first few honeycombs of a bees nest are grouped together", "groundtruth": "human", "machine_groundtruth": "", "human_groundtruth": "Participant_217", "response_speaker": "machine", "response_gender": "female", "hit": true, "counterbalance": 158, "rt": 13015, "trial": 4}}, "Trial_25": {"workerID": "debugYoNBx", "workerData": {"native": "no", "age": "21-25", "gender": "male", "education": "master", "country": "India", "engagement": "5", "difficulty": "5", "imagetype": "near-domain"}, "trialData": {"phase": "TEST", "imageID": "/static/images/imgset/0658.jpg", "caption": "a woman and a child are walking in a garden", "groundtruth": "machine", "machine_groundtruth": "clipcap", "human_groundtruth": "", "response_speaker": "human", "response_gender": "male", "hit": true, "counterbalance": 158, "rt": 9466, "trial": 5}}, "Trial_26": {"workerID": "debugYoNBx", "workerData": {"native": "no", "age": "21-25", "gender": "male", "education": "master", "country": "India", "engagement": "5", "difficulty": "5", "imagetype": "near-domain"}, "trialData": {"phase": "TEST", "imageID": "/static/images/imgset/0978.jpg", "caption": "a group of elephants standing in a field", "groundtruth": "machine", "machine_groundtruth": "clipcap", "human_groundtruth": "", "response_speaker": "human", "response_gender": "male", "hit": true, "counterbalance": 158, "rt": 4616, "trial": 6}}, "Trial_27": {"workerID": "debugYoNBx", "workerData": {"native": "no", "age": "21-25", "gender": "male", "education": "master", "country": "India", "engagement": "5", "difficulty": "5", "imagetype": "near-domain"}, "trialData": {"phase": "TEST", "imageID": "/static/images/imgset/0814.jpg", "caption": "a blue bird perched on a branch of a tree", "groundtruth": "machine", "machine_groundtruth": "ofa", "human_groundtruth": "", "response_speaker": "human", "response_gender": "female", "hit": true, "counterbalance": 158, "rt": 9198, "trial": 7}}, "Trial_28": {"workerID": "debugYoNBx", "workerData": {"native": "no", "age": "21-25", "gender": "male", "education": "master", "country": "India", "engagement": "5", "difficulty": "5", "imagetype": "near-domain"}, "trialData": {"phase": "TEST", "imageID": "/static/images/imgset/0579.jpg", "caption": "a woman with brown hair with a rose in her hair", "groundtruth": "human", "machine_groundtruth": "", "human_groundtruth": "Participant_165", "response_speaker": "human", "response_gender": "male", "hit": true, "counterbalance": 158, "rt": 11948, "trial": 8}}, "Trial_29": {"workerID": "debugYoNBx", "workerData": {"native": "no", "age": "21-25", "gender": "male", "education": "master", "country": "India", "engagement": "5", "difficulty": "5", "imagetype": "near-domain"}, "trialData": {"phase": "TEST", "imageID": "/static/images/imgset/0544.jpg", "caption": "a group of people looking at a painting on a wall", "groundtruth": "machine", "machine_groundtruth": "microsoft_api", "human_groundtruth": "", "response_speaker": "human", "response_gender": "male", "hit": true, "counterbalance": 158, "rt": 6132, "trial": 9}}, "Trial_30": {"workerID": "debugYoNBx", "workerData": {"native": "no", "age": "21-25", "gender": "male", "education": "master", "country": "India", "engagement": "5", "difficulty": "5", "imagetype": "near-domain"}, "trialData": {"phase": "TEST", "imageID": "/static/images/imgset/0342.jpg", "caption": "a small black car parked on a red carpet", "groundtruth": "machine", "machine_groundtruth": "blip", "human_groundtruth": "", "response_speaker": "human", "response_gender": "male", "hit": true, "counterbalance": 158, "rt": 8212, "trial": 10}}, "Trial_31": {"workerID": "debugYoNBx", "workerData": {"native": "no", "age": "21-25", "gender": "male", "education": "master", "country": "India", "engagement": "5", "difficulty": "5", "imagetype": "near-domain"}, "trialData": {"phase": "TEST", "imageID": "/static/images/imgset/0202.jpg", "caption": "a woman having the string in her hand for a kite", "groundtruth": "human", "machine_groundtruth": "", "human_groundtruth": "Participant_218", "response_speaker": "human", "response_gender": "male", "hit": true, "counterbalance": 158, "rt": 7586, "trial": 11}}, "Trial_32": {"workerID": "debugYoNBx", "workerData": {"native": "no", "age": "21-25", "gender": "male", "education": "master", "country": "India", "engagement": "5", "difficulty": "5", "imagetype": "near-domain"}, "trialData": {"phase": "TEST", "imageID": "/static/images/imgset/0545.jpg", "caption": "a black suv on a street with other vehicles", "groundtruth": "human", "machine_groundtruth": "", "human_groundtruth": "Participant_47", "response_speaker": "human", "response_gender": "male", "hit": true, "counterbalance": 158, "rt": 8031, "trial": 12}}, "Trial_33": {"workerID": "debugYoNBx", "workerData": {"native": "no", "age": "21-25", "gender": "male", "education": "master", "country": "India", "engagement": "5", "difficulty": "5", "imagetype": "near-domain"}, "trialData": {"phase": "TEST", "imageID": "/static/images/imgset/0211.jpg", "caption": "a train riding along the train tracks", "groundtruth": "human", "machine_groundtruth": "", "human_groundtruth": "Participant_193", "response_speaker": "human", "response_gender": "male", "hit": true, "counterbalance": 158, "rt": 9901, "trial": 13}}, "Trial_34": {"workerID": "debugYoNBx", "workerData": {"native": "no", "age": "21-25", "gender": "male", "education": "master", "country": "India", "engagement": "5", "difficulty": "5", "imagetype": "near-domain"}, "trialData": {"phase": "TEST", "imageID": "/static/images/imgset/0839.jpg", "caption": "a large bowl with assorted sushi and condiments ", "groundtruth": "human", "machine_groundtruth": "", "human_groundtruth": "Participant_51", "response_speaker": "machine", "response_gender": "male", "hit": true, "counterbalance": 158, "rt": 10480, "trial": 14}}, "Trial_35": {"workerID": "debugYoNBx", "workerData": {"native": "no", "age": "21-25", "gender": "male", "education": "master", "country": "India", "engagement": "5", "difficulty": "5", "imagetype": "near-domain"}, "trialData": {"phase": "TEST", "imageID": "/static/images/imgset/0563.jpg", "caption": "a baby sitting on the floor playing with a drum", "groundtruth": "machine", "machine_groundtruth": "git", "human_groundtruth": "", "response_speaker": "human", "response_gender": "female", "hit": true, "counterbalance": 158, "rt": 6250, "trial": 15}}, "Trial_36": {"workerID": "debugYoNBx", "workerData": {"native": "no", "age": "21-25", "gender": "male", "education": "master", "country": "India", "engagement": "5", "difficulty": "5", "imagetype": "near-domain"}, "trialData": {"phase": "TEST", "imageID": "/static/images/imgset/0388.jpg", "caption": "a person skating on a ramp", "groundtruth": "machine", "machine_groundtruth": "microsoft_api", "human_groundtruth": "", "response_speaker": "machine", "response_gender": "male", "hit": true, "counterbalance": 158, "rt": 12165, "trial": 16}}, "Trial_37": {"workerID": "debugYoNBx", "workerData": {"native": "no", "age": "21-25", "gender": "male", "education": "master", "country": "India", "engagement": "5", "difficulty": "5", "imagetype": "near-domain"}, "trialData": {"phase": "TEST", "imageID": "/static/images/imgset/0255.jpg", "caption": "a man is playing soccer with onlookers", "groundtruth": "human", "machine_groundtruth": "", "human_groundtruth": "Participant_34", "response_speaker": "machine", "response_gender": "female", "hit": true, "counterbalance": 158, "rt": 26833, "trial": 17}}, "Trial_38": {"workerID": "debugYoNBx", "workerData": {"native": "no", "age": "21-25", "gender": "male", "education": "master", "country": "India", "engagement": "5", "difficulty": "5", "imagetype": "near-domain"}, "trialData": {"phase": "TEST", "imageID": "/static/images/imgset/0174.jpg", "caption": "man catching a piece of luggage", "groundtruth": "human", "machine_groundtruth": "", "human_groundtruth": "Participant_186", "response_speaker": "human", "response_gender": "male", "hit": true, "counterbalance": 158, "rt": 6215, "trial": 18}}, "Trial_39": {"workerID": "debugYoNBx", "workerData": {"native": "no", "age": "21-25", "gender": "male", "education": "master", "country": "India", "engagement": "5", "difficulty": "5", "imagetype": "near-domain"}, "trialData": {"phase": "TEST", "imageID": "/static/images/imgset/0705.jpg", "caption": "a herd of cows grazing in a field", "groundtruth": "machine", "machine_groundtruth": "ofa", "human_groundtruth": "", "response_speaker": "human", "response_gender": "male", "hit": true, "counterbalance": 158, "rt": 6235, "trial": 19}}, "Trial_40": {"workerID": "debugYoNBx", "workerData": {"native": "no", "age": "21-25", "gender": "male", "education": "master", "country": "India", "engagement": "5", "difficulty": "5", "imagetype": "near-domain"}, "trialData": {"phase": "TEST", "imageID": "/static/images/imgset/0652.jpg", "caption": "the swimming pool at or close to [ unused0 ]", "groundtruth": "machine", "machine_groundtruth": "git", "human_groundtruth": "", "response_speaker": "machine", "response_gender": "male", "hit": true, "counterbalance": 158, "rt": 7748, "trial": 20}}, "Trial_41": {"workerID": "debugS6FK3", "workerData": {"native": "yes", "age": "31-35", "gender": "female", "education": "bachelor", "country": "Peru", "engagement": "8", "difficulty": "6", "imagetype": "out-domain"}, "trialData": {"phase": "TEST", "imageID": "/static/images/imgset/0251.jpg", "caption": "a little boy going to get his teeth worked on", "groundtruth": "human", "machine_groundtruth": "", "human_groundtruth": "Participant_218", "response_speaker": "human", "response_gender": "male", "hit": true, "counterbalance": 429, "rt": 12948, "trial": 1}}, "Trial_42": {"workerID": "debugS6FK3", "workerData": {"native": "yes", "age": "31-35", "gender": "female", "education": "bachelor", "country": "Peru", "engagement": "8", "difficulty": "6", "imagetype": "out-domain"}, "trialData": {"phase": "TEST", "imageID": "/static/images/imgset/0838.jpg", "caption": "a close up of a cup of coffee on a table", "groundtruth": "machine", "machine_groundtruth": "blip", "human_groundtruth": "", "response_speaker": "machine", "response_gender": "female", "hit": true, "counterbalance": 429, "rt": 19917, "trial": 2}}, "Trial_43": {"workerID": "debugS6FK3", "workerData": {"native": "yes", "age": "31-35", "gender": "female", "education": "bachelor", "country": "Peru", "engagement": "8", "difficulty": "6", "imagetype": "out-domain"}, "trialData": {"phase": "TEST", "imageID": "/static/images/imgset/0372.jpg", "caption": "a white woman with dark hair wears a black outfit exposing quite a bit of cleavage", "groundtruth": "human", "machine_groundtruth": "", "human_groundtruth": "Participant_162", "response_speaker": "machine", "response_gender": "female", "hit": true, "counterbalance": 429, "rt": 18474, "trial": 3}}, "Trial_44": {"workerID": "debugS6FK3", "workerData": {"native": "yes", "age": "31-35", "gender": "female", "education": "bachelor", "country": "Peru", "engagement": "8", "difficulty": "6", "imagetype": "out-domain"}, "trialData": {"phase": "TEST", "imageID": "/static/images/imgset/0578.jpg", "caption": "a group of people sitting on a beach with a large sea animal", "groundtruth": "machine", "machine_groundtruth": "microsoft_api", "human_groundtruth": "", "response_speaker": "machine", "response_gender": "male", "hit": true, "counterbalance": 429, "rt": 13756, "trial": 4}}, "Trial_45": {"workerID": "debugS6FK3", "workerData": {"native": "yes", "age": "31-35", "gender": "female", "education": "bachelor", "country": "Peru", "engagement": "8", "difficulty": "6", "imagetype": "out-domain"}, "trialData": {"phase": "TEST", "imageID": "/static/images/imgset/0845.jpg", "caption": "a close up of a camel's head", "groundtruth": "machine", "machine_groundtruth": "git", "human_groundtruth": "", "response_speaker": "machine", "response_gender": "male", "hit": true, "counterbalance": 429, "rt": 12502, "trial": 5}}, "Trial_46": {"workerID": "debugS6FK3", "workerData": {"native": "yes", "age": "31-35", "gender": "female", "education": "bachelor", "country": "Peru", "engagement": "8", "difficulty": "6", "imagetype": "out-domain"}, "trialData": {"phase": "TEST", "imageID": "/static/images/imgset/0834.jpg", "caption": "an old sofa is on the sidewalk with rips all over the it", "groundtruth": "human", "machine_groundtruth": "", "human_groundtruth": "Participant_184", "response_speaker": "human", "response_gender": "female", "hit": true, "counterbalance": 429, "rt": 13768, "trial": 6}}, "Trial_47": {"workerID": "debugS6FK3", "workerData": {"native": "yes", "age": "31-35", "gender": "female", "education": "bachelor", "country": "Peru", "engagement": "8", "difficulty": "6", "imagetype": "out-domain"}, "trialData": {"phase": "TEST", "imageID": "/static/images/imgset/0880.jpg", "caption": "a piece of bread with eggs and toast on it", "groundtruth": "machine", "machine_groundtruth": "clipcap", "human_groundtruth": "", "response_speaker": "human", "response_gender": "female", "hit": true, "counterbalance": 429, "rt": 11211, "trial": 7}}, "Trial_48": {"workerID": "debugS6FK3", "workerData": {"native": "yes", "age": "31-35", "gender": "female", "education": "bachelor", "country": "Peru", "engagement": "8", "difficulty": "6", "imagetype": "out-domain"}, "trialData": {"phase": "TEST", "imageID": "/static/images/imgset/0820.jpg", "caption": "a clock tower on top of a many-storied building", "groundtruth": "human", "machine_groundtruth": "", "human_groundtruth": "Participant_158", "response_speaker": "machine", "response_gender": "male", "hit": true, "counterbalance": 429, "rt": 13054, "trial": 8}}, "Trial_49": {"workerID": "debugS6FK3", "workerData": {"native": "yes", "age": "31-35", "gender": "female", "education": "bachelor", "country": "Peru", "engagement": "8", "difficulty": "6", "imagetype": "out-domain"}, "trialData": {"phase": "TEST", "imageID": "/static/images/imgset/0284.jpg", "caption": "a man skiing down a snowy surface in the olympics", "groundtruth": "human", "machine_groundtruth": "", "human_groundtruth": "Participant_216", "response_speaker": "machine", "response_gender": "male", "hit": true, "counterbalance": 429, "rt": 13427, "trial": 9}}, "Trial_50": {"workerID": "debugS6FK3", "workerData": {"native": "yes", "age": "31-35", "gender": "female", "education": "bachelor", "country": "Peru", "engagement": "8", "difficulty": "6", "imagetype": "out-domain"}, "trialData": {"phase": "TEST", "imageID": "/static/images/imgset/0666.jpg", "caption": "a man and a woman playing volleyball in the water", "groundtruth": "machine", "machine_groundtruth": "ofa", "human_groundtruth": "", "response_speaker": "machine", "response_gender": "female", "hit": true, "counterbalance": 429, "rt": 14361, "trial": 10}}, "Trial_51": {"workerID": "debugS6FK3", "workerData": {"native": "yes", "age": "31-35", "gender": "female", "education": "bachelor", "country": "Peru", "engagement": "8", "difficulty": "6", "imagetype": "out-domain"}, "trialData": {"phase": "TEST", "imageID": "/static/images/imgset/0176.jpg", "caption": "two people playing a video game in a living room", "groundtruth": "machine", "machine_groundtruth": "ofa", "human_groundtruth": "", "response_speaker": "machine", "response_gender": "male", "hit": true, "counterbalance": 429, "rt": 19282, "trial": 11}}, "Trial_52": {"workerID": "debugS6FK3", "workerData": {"native": "yes", "age": "31-35", "gender": "female", "education": "bachelor", "country": "Peru", "engagement": "8", "difficulty": "6", "imagetype": "out-domain"}, "trialData": {"phase": "TEST", "imageID": "/static/images/imgset/0867.jpg", "caption": "a close up of glasses of champagne", "groundtruth": "human", "machine_groundtruth": "", "human_groundtruth": "Participant_15", "response_speaker": "machine", "response_gender": "male", "hit": true, "counterbalance": 429, "rt": 17636, "trial": 12}}, "Trial_53": {"workerID": "debugS6FK3", "workerData": {"native": "yes", "age": "31-35", "gender": "female", "education": "bachelor", "country": "Peru", "engagement": "8", "difficulty": "6", "imagetype": "out-domain"}, "trialData": {"phase": "TEST", "imageID": "/static/images/imgset/0697.jpg", "caption": "a computer created woman with red and white hair", "groundtruth": "human", "machine_groundtruth": "", "human_groundtruth": "Participant_167", "response_speaker": "human", "response_gender": "female", "hit": true, "counterbalance": 429, "rt": 11169, "trial": 13}}, "Trial_54": {"workerID": "debugS6FK3", "workerData": {"native": "yes", "age": "31-35", "gender": "female", "education": "bachelor", "country": "Peru", "engagement": "8", "difficulty": "6", "imagetype": "out-domain"}, "trialData": {"phase": "TEST", "imageID": "/static/images/imgset/0049.jpg", "caption": "a group of young boys playing a game of soccer", "groundtruth": "machine", "machine_groundtruth": "blip", "human_groundtruth": "", "response_speaker": "human", "response_gender": "female", "hit": true, "counterbalance": 429, "rt": 17276, "trial": 14}}, "Trial_55": {"workerID": "debugS6FK3", "workerData": {"native": "yes", "age": "31-35", "gender": "female", "education": "bachelor", "country": "Peru", "engagement": "8", "difficulty": "6", "imagetype": "out-domain"}, "trialData": {"phase": "TEST", "imageID": "/static/images/imgset/0408.jpg", "caption": "a young girl is standing on the sidewalk looking straight", "groundtruth": "human", "machine_groundtruth": "", "human_groundtruth": "Participant_16", "response_speaker": "machine", "response_gender": "male", "hit": true, "counterbalance": 429, "rt": 8941, "trial": 15}}, "Trial_56": {"workerID": "debugS6FK3", "workerData": {"native": "yes", "age": "31-35", "gender": "female", "education": "bachelor", "country": "Peru", "engagement": "8", "difficulty": "6", "imagetype": "out-domain"}, "trialData": {"phase": "TEST", "imageID": "/static/images/imgset/0472.jpg", "caption": "a woman in a uniform stands in front of a television", "groundtruth": "machine", "machine_groundtruth": "clipcap", "human_groundtruth": "", "response_speaker": "machine", "response_gender": "female", "hit": true, "counterbalance": 429, "rt": 9128, "trial": 16}}, "Trial_57": {"workerID": "debugS6FK3", "workerData": {"native": "yes", "age": "31-35", "gender": "female", "education": "bachelor", "country": "Peru", "engagement": "8", "difficulty": "6", "imagetype": "out-domain"}, "trialData": {"phase": "TEST", "imageID": "/static/images/imgset/0841.jpg", "caption": "a shaped waffle with different toppings on each corner", "groundtruth": "human", "machine_groundtruth": "", "human_groundtruth": "Participant_71", "response_speaker": "human", "response_gender": "female", "hit": true, "counterbalance": 429, "rt": 22765, "trial": 17}}, "Trial_58": {"workerID": "debugS6FK3", "workerData": {"native": "yes", "age": "31-35", "gender": "female", "education": "bachelor", "country": "Peru", "engagement": "8", "difficulty": "6", "imagetype": "out-domain"}, "trialData": {"phase": "TEST", "imageID": "/static/images/imgset/0310.jpg", "caption": "the front end of an awesome bmw", "groundtruth": "human", "machine_groundtruth": "", "human_groundtruth": "Participant_5", "response_speaker": "human", "response_gender": "male", "hit": true, "counterbalance": 429, "rt": 10348, "trial": 18}}, "Trial_59": {"workerID": "debugS6FK3", "workerData": {"native": "yes", "age": "31-35", "gender": "female", "education": "bachelor", "country": "Peru", "engagement": "8", "difficulty": "6", "imagetype": "out-domain"}, "trialData": {"phase": "TEST", "imageID": "/static/images/imgset/0532.jpg", "caption": "a man and woman holding bottles", "groundtruth": "machine", "machine_groundtruth": "microsoft_api", "human_groundtruth": "", "response_speaker": "machine", "response_gender": "male", "hit": true, "counterbalance": 429, "rt": 10746, "trial": 19}}, "Trial_60": {"workerID": "debugS6FK3", "workerData": {"native": "yes", "age": "31-35", "gender": "female", "education": "bachelor", "country": "Peru", "engagement": "8", "difficulty": "6", "imagetype": "out-domain"}, "trialData": {"phase": "TEST", "imageID": "/static/images/imgset/0772.jpg", "caption": "a humpback whale swimming in the ocean", "groundtruth": "machine", "machine_groundtruth": "git", "human_groundtruth": "", "response_speaker": "machine", "response_gender": "male", "hit": true, "counterbalance": 429, "rt": 16362, "trial": 20}}, "Trial_61": {"workerID": "debugKKfmW", "workerData": {"native": "no", "age": "26-30", "gender": "male", "education": "master", "country": "Pakistan", "engagement": "5", "difficulty": "9", "imagetype": "out-domain"}, "trialData": {"phase": "TEST", "imageID": "/static/images/imgset/0910.jpg", "caption": "a machine that is sitting in a room", "groundtruth": "machine", "machine_groundtruth": "git", "human_groundtruth": "", "response_speaker": "human", "response_gender": "male", "hit": true, "counterbalance": 238, "rt": 16386, "trial": 1}}, "Trial_62": {"workerID": "debugKKfmW", "workerData": {"native": "no", "age": "26-30", "gender": "male", "education": "master", "country": "Pakistan", "engagement": "5", "difficulty": "9", "imagetype": "out-domain"}, "trialData": {"phase": "TEST", "imageID": "/static/images/imgset/0298.jpg", "caption": "a man breakdancing near a group of people", "groundtruth": "human", "machine_groundtruth": "", "human_groundtruth": "Participant_8", "response_speaker": "machine", "response_gender": "male", "hit": true, "counterbalance": 238, "rt": 14837, "trial": 2}}, "Trial_63": {"workerID": "debugKKfmW", "workerData": {"native": "no", "age": "26-30", "gender": "male", "education": "master", "country": "Pakistan", "engagement": "5", "difficulty": "9", "imagetype": "out-domain"}, "trialData": {"phase": "TEST", "imageID": "/static/images/imgset/0103.jpg", "caption": "a parking meter in front of a skyscraper", "groundtruth": "human", "machine_groundtruth": "", "human_groundtruth": "Participant_50", "response_speaker": "machine", "response_gender": "male", "hit": true, "counterbalance": 238, "rt": 18089, "trial": 3}}, "Trial_64": {"workerID": "debugKKfmW", "workerData": {"native": "no", "age": "26-30", "gender": "male", "education": "master", "country": "Pakistan", "engagement": "5", "difficulty": "9", "imagetype": "out-domain"}, "trialData": {"phase": "TEST", "imageID": "/static/images/imgset/0502.jpg", "caption": "a dog standing on grass", "groundtruth": "machine", "machine_groundtruth": "microsoft_api", "human_groundtruth": "", "response_speaker": "machine", "response_gender": "male", "hit": true, "counterbalance": 238, "rt": 37228, "trial": 4}}, "Trial_65": {"workerID": "debugKKfmW", "workerData": {"native": "no", "age": "26-30", "gender": "male", "education": "master", "country": "Pakistan", "engagement": "5", "difficulty": "9", "imagetype": "out-domain"}, "trialData": {"phase": "TEST", "imageID": "/static/images/imgset/0180.jpg", "caption": "a small bathroom with a toilet and a window", "groundtruth": "machine", "machine_groundtruth": "ofa", "human_groundtruth": "", "response_speaker": "human", "response_gender": "female", "hit": true, "counterbalance": 238, "rt": 16119, "trial": 5}}, "Trial_66": {"workerID": "debugKKfmW", "workerData": {"native": "no", "age": "26-30", "gender": "male", "education": "master", "country": "Pakistan", "engagement": "5", "difficulty": "9", "imagetype": "out-domain"}, "trialData": {"phase": "TEST", "imageID": "/static/images/imgset/0531.jpg", "caption": "a coffee cup filled with black coffee is next to an ashtray with a cigarette in it", "groundtruth": "human", "machine_groundtruth": "", "human_groundtruth": "Participant_4", "response_speaker": "machine", "response_gender": "male", "hit": true, "counterbalance": 238, "rt": 58852, "trial": 6}}, "Trial_67": {"workerID": "debugKKfmW", "workerData": {"native": "no", "age": "26-30", "gender": "male", "education": "master", "country": "Pakistan", "engagement": "5", "difficulty": "9", "imagetype": "out-domain"}, "trialData": {"phase": "TEST", "imageID": "/static/images/imgset/0079.jpg", "caption": "a large clock tower with a blue face and ornate carvings", "groundtruth": "human", "machine_groundtruth": "", "human_groundtruth": "Participant_175", "response_speaker": "machine", "response_gender": "male", "hit": true, "counterbalance": 238, "rt": 25991, "trial": 7}}, "Trial_68": {"workerID": "debugKKfmW", "workerData": {"native": "no", "age": "26-30", "gender": "male", "education": "master", "country": "Pakistan", "engagement": "5", "difficulty": "9", "imagetype": "out-domain"}, "trialData": {"phase": "TEST", "imageID": "/static/images/imgset/0017.jpg", "caption": "an airplane flying through a blue sky with its landing gear down", "groundtruth": "machine", "machine_groundtruth": "blip", "human_groundtruth": "", "response_speaker": "machine", "response_gender": "male", "hit": true, "counterbalance": 238, "rt": 12778, "trial": 8}}, "Trial_69": {"workerID": "debugKKfmW", "workerData": {"native": "no", "age": "26-30", "gender": "male", "education": "master", "country": "Pakistan", "engagement": "5", "difficulty": "9", "imagetype": "out-domain"}, "trialData": {"phase": "TEST", "imageID": "/static/images/imgset/0277.jpg", "caption": "a skier going downhill on a steep slope", "groundtruth": "human", "machine_groundtruth": "", "human_groundtruth": "Participant_51", "response_speaker": "human", "response_gender": "female", "hit": true, "counterbalance": 238, "rt": 15144, "trial": 9}}, "Trial_70": {"workerID": "debugKKfmW", "workerData": {"native": "no", "age": "26-30", "gender": "male", "education": "master", "country": "Pakistan", "engagement": "5", "difficulty": "9", "imagetype": "out-domain"}, "trialData": {"phase": "TEST", "imageID": "/static/images/imgset/0926.jpg", "caption": "a close up of a plate of food on a table", "groundtruth": "machine", "machine_groundtruth": "clipcap", "human_groundtruth": "", "response_speaker": "machine", "response_gender": "male", "hit": true, "counterbalance": 238, "rt": 24228, "trial": 10}}, "Trial_71": {"workerID": "debugKKfmW", "workerData": {"native": "no", "age": "26-30", "gender": "male", "education": "master", "country": "Pakistan", "engagement": "5", "difficulty": "9", "imagetype": "out-domain"}, "trialData": {"phase": "TEST", "imageID": "/static/images/imgset/0676.jpg", "caption": "a man riding a bike on a trail", "groundtruth": "machine", "machine_groundtruth": "git", "human_groundtruth": "", "response_speaker": "human", "response_gender": "male", "hit": true, "counterbalance": 238, "rt": 8438, "trial": 11}}, "Trial_72": {"workerID": "debugKKfmW", "workerData": {"native": "no", "age": "26-30", "gender": "male", "education": "master", "country": "Pakistan", "engagement": "5", "difficulty": "9", "imagetype": "out-domain"}, "trialData": {"phase": "TEST", "imageID": "/static/images/imgset/0844.jpg", "caption": "a shotgun that is laying on a bed", "groundtruth": "machine", "machine_groundtruth": "blip", "human_groundtruth": "", "response_speaker": "machine", "response_gender": "male", "hit": true, "counterbalance": 238, "rt": 8574, "trial": 12}}, "Trial_73": {"workerID": "debugKKfmW", "workerData": {"native": "no", "age": "26-30", "gender": "male", "education": "master", "country": "Pakistan", "engagement": "5", "difficulty": "9", "imagetype": "out-domain"}, "trialData": {"phase": "TEST", "imageID": "/static/images/imgset/0361.jpg", "caption": "a brown car parked next to a stop sign", "groundtruth": "machine", "machine_groundtruth": "ofa", "human_groundtruth": "", "response_speaker": "machine", "response_gender": "female", "hit": true, "counterbalance": 238, "rt": 11993, "trial": 13}}, "Trial_74": {"workerID": "debugKKfmW", "workerData": {"native": "no", "age": "26-30", "gender": "male", "education": "master", "country": "Pakistan", "engagement": "5", "difficulty": "9", "imagetype": "out-domain"}, "trialData": {"phase": "TEST", "imageID": "/static/images/imgset/0093.jpg", "caption": "a laptop connected to a full keyboard and mouse", "groundtruth": "human", "machine_groundtruth": "", "human_groundtruth": "Participant_210", "response_speaker": "machine", "response_gender": "male", "hit": true, "counterbalance": 238, "rt": 19154, "trial": 14}}, "Trial_75": {"workerID": "debugKKfmW", "workerData": {"native": "no", "age": "26-30", "gender": "male", "education": "master", "country": "Pakistan", "engagement": "5", "difficulty": "9", "imagetype": "out-domain"}, "trialData": {"phase": "TEST", "imageID": "/static/images/imgset/0122.jpg", "caption": "a child eating a plain pizza", "groundtruth": "human", "machine_groundtruth": "", "human_groundtruth": "Participant_58", "response_speaker": "machine", "response_gender": "male", "hit": true, "counterbalance": 238, "rt": 11401, "trial": 15}}, "Trial_76": {"workerID": "debugKKfmW", "workerData": {"native": "no", "age": "26-30", "gender": "male", "education": "master", "country": "Pakistan", "engagement": "5", "difficulty": "9", "imagetype": "out-domain"}, "trialData": {"phase": "TEST", "imageID": "/static/images/imgset/0350.jpg", "caption": "a person in a green dress holding an umbrella", "groundtruth": "machine", "machine_groundtruth": "microsoft_api", "human_groundtruth": "", "response_speaker": "human", "response_gender": "male", "hit": true, "counterbalance": 238, "rt": 19079, "trial": 16}}, "Trial_77": {"workerID": "debugKKfmW", "workerData": {"native": "no", "age": "26-30", "gender": "male", "education": "master", "country": "Pakistan", "engagement": "5", "difficulty": "9", "imagetype": "out-domain"}, "trialData": {"phase": "TEST", "imageID": "/static/images/imgset/0422.jpg", "caption": "a man in colorful shorts stands next to a silver car with a black hood", "groundtruth": "human", "machine_groundtruth": "", "human_groundtruth": "Participant_221", "response_speaker": "human", "response_gender": "male", "hit": true, "counterbalance": 238, "rt": 15436, "trial": 17}}, "Trial_78": {"workerID": "debugKKfmW", "workerData": {"native": "no", "age": "26-30", "gender": "male", "education": "master", "country": "Pakistan", "engagement": "5", "difficulty": "9", "imagetype": "out-domain"}, "trialData": {"phase": "TEST", "imageID": "/static/images/imgset/0368.jpg", "caption": "a man in military fatigues using a mirror to look under a truck", "groundtruth": "human", "machine_groundtruth": "", "human_groundtruth": "Participant_167", "response_speaker": "human", "response_gender": "male", "hit": true, "counterbalance": 238, "rt": 26642, "trial": 18}}, "Trial_79": {"workerID": "debugKKfmW", "workerData": {"native": "no", "age": "26-30", "gender": "male", "education": "master", "country": "Pakistan", "engagement": "5", "difficulty": "9", "imagetype": "out-domain"}, "trialData": {"phase": "TEST", "imageID": "/static/images/imgset/0813.jpg", "caption": "a group of chocolate cookies sitting on top of a baking sheet", "groundtruth": "machine", "machine_groundtruth": "clipcap", "human_groundtruth": "", "response_speaker": "machine", "response_gender": "male", "hit": true, "counterbalance": 238, "rt": 10385, "trial": 19}}, "Trial_80": {"workerID": "debugKKfmW", "workerData": {"native": "no", "age": "26-30", "gender": "male", "education": "master", "country": "Pakistan", "engagement": "5", "difficulty": "9", "imagetype": "out-domain"}, "trialData": {"phase": "TEST", "imageID": "/static/images/imgset/0793.jpg", "caption": "a silver lamp with a black shade sits on a shelf ", "groundtruth": "human", "machine_groundtruth": "", "human_groundtruth": "Participant_31", "response_speaker": "machine", "response_gender": "female", "hit": true, "counterbalance": 238, "rt": 12915, "trial": 20}}, "Trial_81": {"workerID": "debugQUSzi", "workerData": {"native": "no", "age": "21-25", "gender": "male", "education": "master", "country": "Italy", "engagement": "6", "difficulty": "3", "imagetype": "near-domain"}, "trialData": {"phase": "TEST", "imageID": "/static/images/imgset/0976.jpg", "caption": "a small wave crashing on a clean tropical beach", "groundtruth": "human", "machine_groundtruth": "", "human_groundtruth": "Participant_35", "response_speaker": "human", "response_gender": "male", "hit": true, "counterbalance": 413, "rt": 6514, "trial": 1}}, "Trial_82": {"workerID": "debugQUSzi", "workerData": {"native": "no", "age": "21-25", "gender": "male", "education": "master", "country": "Italy", "engagement": "6", "difficulty": "3", "imagetype": "near-domain"}, "trialData": {"phase": "TEST", "imageID": "/static/images/imgset/0216.jpg", "caption": "a train that is sitting on the tracks", "groundtruth": "machine", "machine_groundtruth": "clipcap", "human_groundtruth": "", "response_speaker": "human", "response_gender": "male", "hit": true, "counterbalance": 413, "rt": 5499, "trial": 2}}, "Trial_83": {"workerID": "debugQUSzi", "workerData": {"native": "no", "age": "21-25", "gender": "male", "education": "master", "country": "Italy", "engagement": "6", "difficulty": "3", "imagetype": "near-domain"}, "trialData": {"phase": "TEST", "imageID": "/static/images/imgset/0835.jpg", "caption": "a tree house with a wooden deck and stairs", "groundtruth": "machine", "machine_groundtruth": "blip", "human_groundtruth": "", "response_speaker": "machine", "response_gender": "male", "hit": true, "counterbalance": 413, "rt": 8412, "trial": 3}}, "Trial_84": {"workerID": "debugQUSzi", "workerData": {"native": "no", "age": "21-25", "gender": "male", "education": "master", "country": "Italy", "engagement": "6", "difficulty": "3", "imagetype": "near-domain"}, "trialData": {"phase": "TEST", "imageID": "/static/images/imgset/0599.jpg", "caption": "a white car parked in a grass field with other cars in the background", "groundtruth": "human", "machine_groundtruth": "", "human_groundtruth": "Participant_169", "response_speaker": "machine", "response_gender": "male", "hit": true, "counterbalance": 413, "rt": 6174, "trial": 4}}, "Trial_85": {"workerID": "debugQUSzi", "workerData": {"native": "no", "age": "21-25", "gender": "male", "education": "master", "country": "Italy", "engagement": "6", "difficulty": "3", "imagetype": "near-domain"}, "trialData": {"phase": "TEST", "imageID": "/static/images/imgset/0857.jpg", "caption": "a delicious looking desert with strawberries ", "groundtruth": "human", "machine_groundtruth": "", "human_groundtruth": "Participant_5", "response_speaker": "human", "response_gender": "female", "hit": true, "counterbalance": 413, "rt": 3504, "trial": 5}}, "Trial_86": {"workerID": "debugQUSzi", "workerData": {"native": "no", "age": "21-25", "gender": "male", "education": "master", "country": "Italy", "engagement": "6", "difficulty": "3", "imagetype": "near-domain"}, "trialData": {"phase": "TEST", "imageID": "/static/images/imgset/0104.jpg", "caption": "a pitcher on the mound winding up his pitch", "groundtruth": "human", "machine_groundtruth": "", "human_groundtruth": "Participant_182", "response_speaker": "machine", "response_gender": "male", "hit": true, "counterbalance": 413, "rt": 5787, "trial": 6}}, "Trial_87": {"workerID": "debugQUSzi", "workerData": {"native": "no", "age": "21-25", "gender": "male", "education": "master", "country": "Italy", "engagement": "6", "difficulty": "3", "imagetype": "near-domain"}, "trialData": {"phase": "TEST", "imageID": "/static/images/imgset/0026.jpg", "caption": "a group of cell phones on a table", "groundtruth": "machine", "machine_groundtruth": "microsoft_api", "human_groundtruth": "", "response_speaker": "machine", "response_gender": "male", "hit": true, "counterbalance": 413, "rt": 3652, "trial": 7}}, "Trial_88": {"workerID": "debugQUSzi", "workerData": {"native": "no", "age": "21-25", "gender": "male", "education": "master", "country": "Italy", "engagement": "6", "difficulty": "3", "imagetype": "near-domain"}, "trialData": {"phase": "TEST", "imageID": "/static/images/imgset/0705.jpg", "caption": "a herd of cattle grazing in a field", "groundtruth": "machine", "machine_groundtruth": "git", "human_groundtruth": "", "response_speaker": "human", "response_gender": "female", "hit": true, "counterbalance": 413, "rt": 5595, "trial": 8}}, "Trial_89": {"workerID": "debugQUSzi", "workerData": {"native": "no", "age": "21-25", "gender": "male", "education": "master", "country": "Italy", "engagement": "6", "difficulty": "3", "imagetype": "near-domain"}, "trialData": {"phase": "TEST", "imageID": "/static/images/imgset/0165.jpg", "caption": "a laptop that is open in an office with emails showing", "groundtruth": "human", "machine_groundtruth": "", "human_groundtruth": "Participant_158", "response_speaker": "machine", "response_gender": "male", "hit": true, "counterbalance": 413, "rt": 8559, "trial": 9}}, "Trial_90": {"workerID": "debugQUSzi", "workerData": {"native": "no", "age": "21-25", "gender": "male", "education": "master", "country": "Italy", "engagement": "6", "difficulty": "3", "imagetype": "near-domain"}, "trialData": {"phase": "TEST", "imageID": "/static/images/imgset/0507.jpg", "caption": "a man riding a bike down a dirt road", "groundtruth": "machine", "machine_groundtruth": "ofa", "human_groundtruth": "", "response_speaker": "machine", "response_gender": "male", "hit": true, "counterbalance": 413, "rt": 8286, "trial": 10}}, "Trial_91": {"workerID": "debugQUSzi", "workerData": {"native": "no", "age": "21-25", "gender": "male", "education": "master", "country": "Italy", "engagement": "6", "difficulty": "3", "imagetype": "near-domain"}, "trialData": {"phase": "TEST", "imageID": "/static/images/imgset/0514.jpg", "caption": "a wrap full of vegetables is cut in half", "groundtruth": "human", "machine_groundtruth": "", "human_groundtruth": "Participant_56", "response_speaker": "machine", "response_gender": "female", "hit": true, "counterbalance": 413, "rt": 11212, "trial": 11}}, "Trial_92": {"workerID": "debugQUSzi", "workerData": {"native": "no", "age": "21-25", "gender": "male", "education": "master", "country": "Italy", "engagement": "6", "difficulty": "3", "imagetype": "near-domain"}, "trialData": {"phase": "TEST", "imageID": "/static/images/imgset/0049.jpg", "caption": "a group of young boys playing soccer on a field", "groundtruth": "machine", "machine_groundtruth": "clipcap", "human_groundtruth": "", "response_speaker": "human", "response_gender": "male", "hit": true, "counterbalance": 413, "rt": 4462, "trial": 12}}, "Trial_93": {"workerID": "debugQUSzi", "workerData": {"native": "no", "age": "21-25", "gender": "male", "education": "master", "country": "Italy", "engagement": "6", "difficulty": "3", "imagetype": "near-domain"}, "trialData": {"phase": "TEST", "imageID": "/static/images/imgset/0364.jpg", "caption": "a young boy on skis with a man behind him", "groundtruth": "human", "machine_groundtruth": "", "human_groundtruth": "Participant_203", "response_speaker": "machine", "response_gender": "female", "hit": true, "counterbalance": 413, "rt": 24043, "trial": 13}}, "Trial_94": {"workerID": "debugQUSzi", "workerData": {"native": "no", "age": "21-25", "gender": "male", "education": "master", "country": "Italy", "engagement": "6", "difficulty": "3", "imagetype": "near-domain"}, "trialData": {"phase": "TEST", "imageID": "/static/images/imgset/0460.jpg", "caption": "a man getting a tattoo on another man's arm", "groundtruth": "machine", "machine_groundtruth": "blip", "human_groundtruth": "", "response_speaker": "machine", "response_gender": "male", "hit": true, "counterbalance": 413, "rt": 6204, "trial": 14}}, "Trial_95": {"workerID": "debugQUSzi", "workerData": {"native": "no", "age": "21-25", "gender": "male", "education": "master", "country": "Italy", "engagement": "6", "difficulty": "3", "imagetype": "near-domain"}, "trialData": {"phase": "TEST", "imageID": "/static/images/imgset/0830.jpg", "caption": "a close up of a mushroom", "groundtruth": "machine", "machine_groundtruth": "git", "human_groundtruth": "", "response_speaker": "human", "response_gender": "male", "hit": true, "counterbalance": 413, "rt": 5885, "trial": 15}}, "Trial_96": {"workerID": "debugQUSzi", "workerData": {"native": "no", "age": "21-25", "gender": "male", "education": "master", "country": "Italy", "engagement": "6", "difficulty": "3", "imagetype": "near-domain"}, "trialData": {"phase": "TEST", "imageID": "/static/images/imgset/0301.jpg", "caption": "a karate class with a teacher demonstrating on a young girl", "groundtruth": "human", "machine_groundtruth": "", "human_groundtruth": "Participant_36", "response_speaker": "machine", "response_gender": "female", "hit": true, "counterbalance": 413, "rt": 14332, "trial": 16}}, "Trial_97": {"workerID": "debugQUSzi", "workerData": {"native": "no", "age": "21-25", "gender": "male", "education": "master", "country": "Italy", "engagement": "6", "difficulty": "3", "imagetype": "near-domain"}, "trialData": {"phase": "TEST", "imageID": "/static/images/imgset/0887.jpg", "caption": "a rearview mirror showing oncoming traffic led by a white truck", "groundtruth": "human", "machine_groundtruth": "", "human_groundtruth": "Participant_223", "response_speaker": "human", "response_gender": "male", "hit": true, "counterbalance": 413, "rt": 4359, "trial": 17}}, "Trial_98": {"workerID": "debugQUSzi", "workerData": {"native": "no", "age": "21-25", "gender": "male", "education": "master", "country": "Italy", "engagement": "6", "difficulty": "3", "imagetype": "near-domain"}, "trialData": {"phase": "TEST", "imageID": "/static/images/imgset/0184.jpg", "caption": "women talking on the phone", "groundtruth": "machine", "machine_groundtruth": "microsoft_api", "human_groundtruth": "", "response_speaker": "machine", "response_gender": "female", "hit": true, "counterbalance": 413, "rt": 4033, "trial": 18}}, "Trial_99": {"workerID": "debugQUSzi", "workerData": {"native": "no", "age": "21-25", "gender": "male", "education": "master", "country": "Italy", "engagement": "6", "difficulty": "3", "imagetype": "near-domain"}, "trialData": {"phase": "TEST", "imageID": "/static/images/imgset/0718.jpg", "caption": "a great action shot of one of the greatest players ever", "groundtruth": "human", "machine_groundtruth": "", "human_groundtruth": "Participant_5", "response_speaker": "human", "response_gender": "male", "hit": true, "counterbalance": 413, "rt": 4748, "trial": 19}}, "Trial_100": {"workerID": "debugQUSzi", "workerData": {"native": "no", "age": "21-25", "gender": "male", "education": "master", "country": "Italy", "engagement": "6", "difficulty": "3", "imagetype": "near-domain"}, "trialData": {"phase": "TEST", "imageID": "/static/images/imgset/0585.jpg", "caption": "a man is riding a bike in a chair", "groundtruth": "machine", "machine_groundtruth": "ofa", "human_groundtruth": "", "response_speaker": "machine", "response_gender": "male", "hit": true, "counterbalance": 413, "rt": 5205, "trial": 20}}, "Trial_101": {"workerID": "debugREYWF", "workerData": {"native": "no", "age": "21-25", "gender": "male", "education": "master", "country": "France", "engagement": "8", "difficulty": "6", "imagetype": "in-domain"}, "trialData": {"phase": "TEST", "imageID": "/static/images/imgset/0166.jpg", "caption": "two zebras standing next to each other in a field", "groundtruth": "machine", "machine_groundtruth": "clipcap", "human_groundtruth": "", "response_speaker": "human", "response_gender": "male", "hit": true, "counterbalance": 8, "rt": 42392, "trial": 1}}, "Trial_102": {"workerID": "debugREYWF", "workerData": {"native": "no", "age": "21-25", "gender": "male", "education": "master", "country": "France", "engagement": "8", "difficulty": "6", "imagetype": "in-domain"}, "trialData": {"phase": "TEST", "imageID": "/static/images/imgset/0162.jpg", "caption": "a close up of a polar bear", "groundtruth": "machine", "machine_groundtruth": "git", "human_groundtruth": "", "response_speaker": "machine", "response_gender": "male", "hit": true, "counterbalance": 8, "rt": 11777, "trial": 2}}, "Trial_103": {"workerID": "debugREYWF", "workerData": {"native": "no", "age": "21-25", "gender": "male", "education": "master", "country": "France", "engagement": "8", "difficulty": "6", "imagetype": "in-domain"}, "trialData": {"phase": "TEST", "imageID": "/static/images/imgset/0762.jpg", "caption": "a crustacean inside of an aquarium", "groundtruth": "human", "machine_groundtruth": "", "human_groundtruth": "Participant_73", "response_speaker": "machine", "response_gender": "male", "hit": true, "counterbalance": 8, "rt": 6841, "trial": 3}}, "Trial_104": {"workerID": "debugREYWF", "workerData": {"native": "no", "age": "21-25", "gender": "male", "education": "master", "country": "France", "engagement": "8", "difficulty": "6", "imagetype": "in-domain"}, "trialData": {"phase": "TEST", "imageID": "/static/images/imgset/0264.jpg", "caption": "a bride and groom hold hands during their wedding ceremony", "groundtruth": "machine", "machine_groundtruth": "git", "human_groundtruth": "", "response_speaker": "human", "response_gender": "female", "hit": true, "counterbalance": 8, "rt": 68621, "trial": 4}}, "Trial_105": {"workerID": "debugREYWF", "workerData": {"native": "no", "age": "21-25", "gender": "male", "education": "master", "country": "France", "engagement": "8", "difficulty": "6", "imagetype": "in-domain"}, "trialData": {"phase": "TEST", "imageID": "/static/images/imgset/0922.jpg", "caption": "a desk with books and model cars on the shelves", "groundtruth": "human", "machine_groundtruth": "", "human_groundtruth": "Participant_28", "response_speaker": "human", "response_gender": "male", "hit": true, "counterbalance": 8, "rt": 10760, "trial": 5}}, "Trial_106": {"workerID": "debugREYWF", "workerData": {"native": "no", "age": "21-25", "gender": "male", "education": "master", "country": "France", "engagement": "8", "difficulty": "6", "imagetype": "in-domain"}, "trialData": {"phase": "TEST", "imageID": "/static/images/imgset/0452.jpg", "caption": "a dog with a frisbee standing next to a man", "groundtruth": "machine", "machine_groundtruth": "clipcap", "human_groundtruth": "", "response_speaker": "machine", "response_gender": "male", "hit": true, "counterbalance": 8, "rt": 7479, "trial": 6}}, "Trial_107": {"workerID": "debugREYWF", "workerData": {"native": "no", "age": "21-25", "gender": "male", "education": "master", "country": "France", "engagement": "8", "difficulty": "6", "imagetype": "in-domain"}, "trialData": {"phase": "TEST", "imageID": "/static/images/imgset/0928.jpg", "caption": "a turtle on a beach", "groundtruth": "machine", "machine_groundtruth": "microsoft_api", "human_groundtruth": "", "response_speaker": "human", "response_gender": "male", "hit": true, "counterbalance": 8, "rt": 74149, "trial": 7}}, "Trial_108": {"workerID": "debugREYWF", "workerData": {"native": "no", "age": "21-25", "gender": "male", "education": "master", "country": "France", "engagement": "8", "difficulty": "6", "imagetype": "in-domain"}, "trialData": {"phase": "TEST", "imageID": "/static/images/imgset/0991.jpg", "caption": "a wood burning metal stove next to a wooden crate", "groundtruth": "human", "machine_groundtruth": "", "human_groundtruth": "Participant_31", "response_speaker": "human", "response_gender": "male", "hit": true, "counterbalance": 8, "rt": 10811, "trial": 8}}, "Trial_109": {"workerID": "debugREYWF", "workerData": {"native": "no", "age": "21-25", "gender": "male", "education": "master", "country": "France", "engagement": "8", "difficulty": "6", "imagetype": "in-domain"}, "trialData": {"phase": "TEST", "imageID": "/static/images/imgset/0739.jpg", "caption": "a man holds a toddler and waves in a field of flowers", "groundtruth": "human", "machine_groundtruth": "", "human_groundtruth": "Participant_33", "response_speaker": "human", "response_gender": "female", "hit": true, "counterbalance": 8, "rt": 7364, "trial": 9}}, "Trial_110": {"workerID": "debugREYWF", "workerData": {"native": "no", "age": "21-25", "gender": "male", "education": "master", "country": "France", "engagement": "8", "difficulty": "6", "imagetype": "in-domain"}, "trialData": {"phase": "TEST", "imageID": "/static/images/imgset/0447.jpg", "caption": "a man holding a baseball bat on top of a field", "groundtruth": "machine", "machine_groundtruth": "blip", "human_groundtruth": "", "response_speaker": "machine", "response_gender": "male", "hit": true, "counterbalance": 8, "rt": 27373, "trial": 10}}, "Trial_111": {"workerID": "debugREYWF", "workerData": {"native": "no", "age": "21-25", "gender": "male", "education": "master", "country": "France", "engagement": "8", "difficulty": "6", "imagetype": "in-domain"}, "trialData": {"phase": "TEST", "imageID": "/static/images/imgset/0117.jpg", "caption": "a cluster of bananas is displayed above an orange banana holder", "groundtruth": "human", "machine_groundtruth": "", "human_groundtruth": "Participant_66", "response_speaker": "machine", "response_gender": "female", "hit": true, "counterbalance": 8, "rt": 46401, "trial": 11}}, "Trial_112": {"workerID": "debugREYWF", "workerData": {"native": "no", "age": "21-25", "gender": "male", "education": "master", "country": "France", "engagement": "8", "difficulty": "6", "imagetype": "in-domain"}, "trialData": {"phase": "TEST", "imageID": "/static/images/imgset/0939.jpg", "caption": "a palm tree that shows the leaves", "groundtruth": "human", "machine_groundtruth": "", "human_groundtruth": "Participant_153", "response_speaker": "machine", "response_gender": "male", "hit": true, "counterbalance": 8, "rt": 7099, "trial": 12}}, "Trial_113": {"workerID": "debugREYWF", "workerData": {"native": "no", "age": "21-25", "gender": "male", "education": "master", "country": "France", "engagement": "8", "difficulty": "6", "imagetype": "in-domain"}, "trialData": {"phase": "TEST", "imageID": "/static/images/imgset/0365.jpg", "caption": "three young men riding skateboards down a road", "groundtruth": "machine", "machine_groundtruth": "ofa", "human_groundtruth": "", "response_speaker": "human", "response_gender": "female", "hit": true, "counterbalance": 8, "rt": 33521, "trial": 13}}, "Trial_114": {"workerID": "debugREYWF", "workerData": {"native": "no", "age": "21-25", "gender": "male", "education": "master", "country": "France", "engagement": "8", "difficulty": "6", "imagetype": "in-domain"}, "trialData": {"phase": "TEST", "imageID": "/static/images/imgset/0335.jpg", "caption": "a bodybuilder readies himself to lift a heavy weight while another person looks on", "groundtruth": "human", "machine_groundtruth": "", "human_groundtruth": "Participant_189", "response_speaker": "machine", "response_gender": "female", "hit": true, "counterbalance": 8, "rt": 13741, "trial": 14}}, "Trial_115": {"workerID": "debugREYWF", "workerData": {"native": "no", "age": "21-25", "gender": "male", "education": "master", "country": "France", "engagement": "8", "difficulty": "6", "imagetype": "in-domain"}, "trialData": {"phase": "TEST", "imageID": "/static/images/imgset/0068.jpg", "caption": "three giraffe stand in a tall grassy field", "groundtruth": "human", "machine_groundtruth": "", "human_groundtruth": "Participant_167", "response_speaker": "human", "response_gender": "male", "hit": true, "counterbalance": 8, "rt": 7035, "trial": 15}}, "Trial_116": {"workerID": "debugREYWF", "workerData": {"native": "no", "age": "21-25", "gender": "male", "education": "master", "country": "France", "engagement": "8", "difficulty": "6", "imagetype": "in-domain"}, "trialData": {"phase": "TEST", "imageID": "/static/images/imgset/0636.jpg", "caption": "a boy and a girl sitting on the ground", "groundtruth": "machine", "machine_groundtruth": "ofa", "human_groundtruth": "", "response_speaker": "machine", "response_gender": "female", "hit": true, "counterbalance": 8, "rt": 77553, "trial": 16}}, "Trial_117": {"workerID": "debugREYWF", "workerData": {"native": "no", "age": "21-25", "gender": "male", "education": "master", "country": "France", "engagement": "8", "difficulty": "6", "imagetype": "in-domain"}, "trialData": {"phase": "TEST", "imageID": "/static/images/imgset/0155.jpg", "caption": "a brown bear sitting on a log in the woods", "groundtruth": "machine", "machine_groundtruth": "blip", "human_groundtruth": "", "response_speaker": "machine", "response_gender": "male", "hit": true, "counterbalance": 8, "rt": 10059, "trial": 17}}, "Trial_118": {"workerID": "debugREYWF", "workerData": {"native": "no", "age": "21-25", "gender": "male", "education": "master", "country": "France", "engagement": "8", "difficulty": "6", "imagetype": "in-domain"}, "trialData": {"phase": "TEST", "imageID": "/static/images/imgset/0533.jpg", "caption": "a man using a chainsaw to cut down a tree", "groundtruth": "human", "machine_groundtruth": "", "human_groundtruth": "Participant_73", "response_speaker": "human", "response_gender": "female", "hit": true, "counterbalance": 8, "rt": 8423, "trial": 18}}, "Trial_119": {"workerID": "debugREYWF", "workerData": {"native": "no", "age": "21-25", "gender": "male", "education": "master", "country": "France", "engagement": "8", "difficulty": "6", "imagetype": "in-domain"}, "trialData": {"phase": "TEST", "imageID": "/static/images/imgset/0403.jpg", "caption": "a woman in a white shirt", "groundtruth": "machine", "machine_groundtruth": "microsoft_api", "human_groundtruth": "", "response_speaker": "human", "response_gender": "female", "hit": true, "counterbalance": 8, "rt": 21270, "trial": 19}}, "Trial_120": {"workerID": "debugREYWF", "workerData": {"native": "no", "age": "21-25", "gender": "male", "education": "master", "country": "France", "engagement": "8", "difficulty": "6", "imagetype": "in-domain"}, "trialData": {"phase": "TEST", "imageID": "/static/images/imgset/0367.jpg", "caption": "a woman receiving a kiss from a young girl", "groundtruth": "human", "machine_groundtruth": "", "human_groundtruth": "Participant_32", "response_speaker": "machine", "response_gender": "female", "hit": true, "counterbalance": 8, "rt": 78695, "trial": 20}}, "Trial_121": {"workerID": "debugnYFi8", "workerData": {"native": "no", "age": "21-25", "gender": "male", "education": "bachelor", "country": "Italy", "engagement": "8", "difficulty": "8", "imagetype": "near-domain"}, "trialData": {"phase": "TEST", "imageID": "/static/images/imgset/0340.jpg", "caption": "a woman with pigtails and bows in her hair playing cricket on a field with teammates", "groundtruth": "human", "machine_groundtruth": "", "human_groundtruth": "Participant_223", "response_speaker": "machine", "response_gender": "male", "hit": true, "counterbalance": 418, "rt": 77235, "trial": 1}}, "Trial_122": {"workerID": "debugnYFi8", "workerData": {"native": "no", "age": "21-25", "gender": "male", "education": "bachelor", "country": "Italy", "engagement": "8", "difficulty": "8", "imagetype": "near-domain"}, "trialData": {"phase": "TEST", "imageID": "/static/images/imgset/0900.jpg", "caption": "a close up of a drink with strawberries", "groundtruth": "machine", "machine_groundtruth": "git", "human_groundtruth": "", "response_speaker": "human", "response_gender": "female", "hit": true, "counterbalance": 418, "rt": 20333, "trial": 2}}, "Trial_123": {"workerID": "debugnYFi8", "workerData": {"native": "no", "age": "21-25", "gender": "male", "education": "bachelor", "country": "Italy", "engagement": "8", "difficulty": "8", "imagetype": "near-domain"}, "trialData": {"phase": "TEST", "imageID": "/static/images/imgset/0448.jpg", "caption": "a man wearing a white hat leaning out of a silver suv", "groundtruth": "human", "machine_groundtruth": "", "human_groundtruth": "Participant_1", "response_speaker": "machine", "response_gender": "male", "hit": true, "counterbalance": 418, "rt": 11632, "trial": 3}}, "Trial_124": {"workerID": "debugnYFi8", "workerData": {"native": "no", "age": "21-25", "gender": "male", "education": "bachelor", "country": "Italy", "engagement": "8", "difficulty": "8", "imagetype": "near-domain"}, "trialData": {"phase": "TEST", "imageID": "/static/images/imgset/0659.jpg", "caption": "a woman in a garment holding a volleyball", "groundtruth": "machine", "machine_groundtruth": "microsoft_api", "human_groundtruth": "", "response_speaker": "machine", "response_gender": "male", "hit": true, "counterbalance": 418, "rt": 23862, "trial": 4}}, "Trial_125": {"workerID": "debugnYFi8", "workerData": {"native": "no", "age": "21-25", "gender": "male", "education": "bachelor", "country": "Italy", "engagement": "8", "difficulty": "8", "imagetype": "near-domain"}, "trialData": {"phase": "TEST", "imageID": "/static/images/imgset/0312.jpg", "caption": "a man in glasses and a blonde woman kissing in nice clothes", "groundtruth": "human", "machine_groundtruth": "", "human_groundtruth": "Participant_19", "response_speaker": "human", "response_gender": "male", "hit": true, "counterbalance": 418, "rt": 13058, "trial": 5}}, "Trial_126": {"workerID": "debugnYFi8", "workerData": {"native": "no", "age": "21-25", "gender": "male", "education": "bachelor", "country": "Italy", "engagement": "8", "difficulty": "8", "imagetype": "near-domain"}, "trialData": {"phase": "TEST", "imageID": "/static/images/imgset/0956.jpg", "caption": "a hello kitty display showcasing various toys and collectibles", "groundtruth": "human", "machine_groundtruth": "", "human_groundtruth": "Participant_10", "response_speaker": "machine", "response_gender": "male", "hit": true, "counterbalance": 418, "rt": 14353, "trial": 6}}, "Trial_127": {"workerID": "debugnYFi8", "workerData": {"native": "no", "age": "21-25", "gender": "male", "education": "bachelor", "country": "Italy", "engagement": "8", "difficulty": "8", "imagetype": "near-domain"}, "trialData": {"phase": "TEST", "imageID": "/static/images/imgset/0311.jpg", "caption": "a woman standing holding an umbrella", "groundtruth": "human", "machine_groundtruth": "", "human_groundtruth": "Participant_144", "response_speaker": "human", "response_gender": "male", "hit": true, "counterbalance": 418, "rt": 12038, "trial": 7}}, "Trial_128": {"workerID": "debugnYFi8", "workerData": {"native": "no", "age": "21-25", "gender": "male", "education": "bachelor", "country": "Italy", "engagement": "8", "difficulty": "8", "imagetype": "near-domain"}, "trialData": {"phase": "TEST", "imageID": "/static/images/imgset/0838.jpg", "caption": "a cup of milk sitting on a table", "groundtruth": "machine", "machine_groundtruth": "ofa", "human_groundtruth": "", "response_speaker": "machine", "response_gender": "female", "hit": true, "counterbalance": 418, "rt": 10541, "trial": 8}}, "Trial_129": {"workerID": "debugnYFi8", "workerData": {"native": "no", "age": "21-25", "gender": "male", "education": "bachelor", "country": "Italy", "engagement": "8", "difficulty": "8", "imagetype": "near-domain"}, "trialData": {"phase": "TEST", "imageID": "/static/images/imgset/0889.jpg", "caption": "two geese are swimming in a body of water", "groundtruth": "machine", "machine_groundtruth": "ofa", "human_groundtruth": "", "response_speaker": "human", "response_gender": "male", "hit": true, "counterbalance": 418, "rt": 10587, "trial": 9}}, "Trial_130": {"workerID": "debugnYFi8", "workerData": {"native": "no", "age": "21-25", "gender": "male", "education": "bachelor", "country": "Italy", "engagement": "8", "difficulty": "8", "imagetype": "near-domain"}, "trialData": {"phase": "TEST", "imageID": "/static/images/imgset/0914.jpg", "caption": "a man wearing a blue shirt and blue jeans", "groundtruth": "machine", "machine_groundtruth": "clipcap", "human_groundtruth": "", "response_speaker": "machine", "response_gender": "male", "hit": true, "counterbalance": 418, "rt": 6212, "trial": 10}}, "Trial_131": {"workerID": "debugnYFi8", "workerData": {"native": "no", "age": "21-25", "gender": "male", "education": "bachelor", "country": "Italy", "engagement": "8", "difficulty": "8", "imagetype": "near-domain"}, "trialData": {"phase": "TEST", "imageID": "/static/images/imgset/0295.jpg", "caption": "a group of people dressed in green and white walking down a street", "groundtruth": "machine", "machine_groundtruth": "git", "human_groundtruth": "", "response_speaker": "machine", "response_gender": "female", "hit": true, "counterbalance": 418, "rt": 9529, "trial": 11}}, "Trial_132": {"workerID": "debugnYFi8", "workerData": {"native": "no", "age": "21-25", "gender": "male", "education": "bachelor", "country": "Italy", "engagement": "8", "difficulty": "8", "imagetype": "near-domain"}, "trialData": {"phase": "TEST", "imageID": "/static/images/imgset/0283.jpg", "caption": "a man walks up to a tennis ball in a tennis court ready to swing", "groundtruth": "human", "machine_groundtruth": "", "human_groundtruth": "Participant_229", "response_speaker": "human", "response_gender": "male", "hit": true, "counterbalance": 418, "rt": 10108, "trial": 12}}, "Trial_133": {"workerID": "debugnYFi8", "workerData": {"native": "no", "age": "21-25", "gender": "male", "education": "bachelor", "country": "Italy", "engagement": "8", "difficulty": "8", "imagetype": "near-domain"}, "trialData": {"phase": "TEST", "imageID": "/static/images/imgset/0721.jpg", "caption": "a group of people sitting on a snowmobile in front of a hotel", "groundtruth": "machine", "machine_groundtruth": "blip", "human_groundtruth": "", "response_speaker": "human", "response_gender": "male", "hit": true, "counterbalance": 418, "rt": 7564, "trial": 13}}, "Trial_134": {"workerID": "debugnYFi8", "workerData": {"native": "no", "age": "21-25", "gender": "male", "education": "bachelor", "country": "Italy", "engagement": "8", "difficulty": "8", "imagetype": "near-domain"}, "trialData": {"phase": "TEST", "imageID": "/static/images/imgset/0988.jpg", "caption": "a window with a curtain in front of it", "groundtruth": "machine", "machine_groundtruth": "blip", "human_groundtruth": "", "response_speaker": "machine", "response_gender": "female", "hit": true, "counterbalance": 418, "rt": 9201, "trial": 14}}, "Trial_135": {"workerID": "debugnYFi8", "workerData": {"native": "no", "age": "21-25", "gender": "male", "education": "bachelor", "country": "Italy", "engagement": "8", "difficulty": "8", "imagetype": "near-domain"}, "trialData": {"phase": "TEST", "imageID": "/static/images/imgset/0737.jpg", "caption": "a stack of books and plants inside the shelf of white tiles", "groundtruth": "human", "machine_groundtruth": "", "human_groundtruth": "Participant_81", "response_speaker": "human", "response_gender": "female", "hit": true, "counterbalance": 418, "rt": 15513, "trial": 15}}, "Trial_136": {"workerID": "debugnYFi8", "workerData": {"native": "no", "age": "21-25", "gender": "male", "education": "bachelor", "country": "Italy", "engagement": "8", "difficulty": "8", "imagetype": "near-domain"}, "trialData": {"phase": "TEST", "imageID": "/static/images/imgset/0628.jpg", "caption": "a group of people sitting at a long table", "groundtruth": "machine", "machine_groundtruth": "clipcap", "human_groundtruth": "", "response_speaker": "machine", "response_gender": "male", "hit": true, "counterbalance": 418, "rt": 7141, "trial": 16}}, "Trial_137": {"workerID": "debugnYFi8", "workerData": {"native": "no", "age": "21-25", "gender": "male", "education": "bachelor", "country": "Italy", "engagement": "8", "difficulty": "8", "imagetype": "near-domain"}, "trialData": {"phase": "TEST", "imageID": "/static/images/imgset/0368.jpg", "caption": "a man in uniform standing next to a black truck", "groundtruth": "machine", "machine_groundtruth": "microsoft_api", "human_groundtruth": "", "response_speaker": "machine", "response_gender": "male", "hit": true, "counterbalance": 418, "rt": 8016, "trial": 17}}, "Trial_138": {"workerID": "debugnYFi8", "workerData": {"native": "no", "age": "21-25", "gender": "male", "education": "bachelor", "country": "Italy", "engagement": "8", "difficulty": "8", "imagetype": "near-domain"}, "trialData": {"phase": "TEST", "imageID": "/static/images/imgset/0086.jpg", "caption": "a man on a surfboard riding a wave ", "groundtruth": "human", "machine_groundtruth": "", "human_groundtruth": "Participant_69", "response_speaker": "machine", "response_gender": "male", "hit": true, "counterbalance": 418, "rt": 9412, "trial": 18}}, "Trial_139": {"workerID": "debugnYFi8", "workerData": {"native": "no", "age": "21-25", "gender": "male", "education": "bachelor", "country": "Italy", "engagement": "8", "difficulty": "8", "imagetype": "near-domain"}, "trialData": {"phase": "TEST", "imageID": "/static/images/imgset/0856.jpg", "caption": "toasted heart-shaped waffles with sprinkles of sugar", "groundtruth": "human", "machine_groundtruth": "", "human_groundtruth": "Participant_50", "response_speaker": "human", "response_gender": "male", "hit": true, "counterbalance": 418, "rt": 12675, "trial": 19}}, "Trial_140": {"workerID": "debugnYFi8", "workerData": {"native": "no", "age": "21-25", "gender": "male", "education": "bachelor", "country": "Italy", "engagement": "8", "difficulty": "8", "imagetype": "near-domain"}, "trialData": {"phase": "TEST", "imageID": "/static/images/imgset/0662.jpg", "caption": "a red and white tram driving on a cobbled street", "groundtruth": "human", "machine_groundtruth": "", "human_groundtruth": "Participant_175", "response_speaker": "human", "response_gender": "male", "hit": true, "counterbalance": 418, "rt": 21007, "trial": 20}}, "Trial_141": {"workerID": "debug2EJxh", "workerData": {"native": "yes", "age": "21-25", "gender": "female", "education": "high school", "country": "United States", "engagement": "5", "difficulty": "3", "imagetype": "near-domain"}, "trialData": {"phase": "TEST", "imageID": "/static/images/imgset/0657.jpg", "caption": "pulled pork in a casserole dish", "groundtruth": "machine", "machine_groundtruth": "git", "human_groundtruth": "", "response_speaker": "human", "response_gender": "male", "hit": true, "counterbalance": 91, "rt": 18579, "trial": 1}}, "Trial_142": {"workerID": "debug2EJxh", "workerData": {"native": "yes", "age": "21-25", "gender": "female", "education": "high school", "country": "United States", "engagement": "5", "difficulty": "3", "imagetype": "near-domain"}, "trialData": {"phase": "TEST", "imageID": "/static/images/imgset/0222.jpg", "caption": "a large airplane sitting on a runway at an airport", "groundtruth": "machine", "machine_groundtruth": "ofa", "human_groundtruth": "", "response_speaker": "machine", "response_gender": "male", "hit": true, "counterbalance": 91, "rt": 8866, "trial": 2}}, "Trial_143": {"workerID": "debug2EJxh", "workerData": {"native": "yes", "age": "21-25", "gender": "female", "education": "high school", "country": "United States", "engagement": "5", "difficulty": "3", "imagetype": "near-domain"}, "trialData": {"phase": "TEST", "imageID": "/static/images/imgset/0423.jpg", "caption": "a woman looking down with her hair over her shoulder", "groundtruth": "human", "machine_groundtruth": "", "human_groundtruth": "Participant_91", "response_speaker": "human", "response_gender": "male", "hit": true, "counterbalance": 91, "rt": 8651, "trial": 3}}, "Trial_144": {"workerID": "debug2EJxh", "workerData": {"native": "yes", "age": "21-25", "gender": "female", "education": "high school", "country": "United States", "engagement": "5", "difficulty": "3", "imagetype": "near-domain"}, "trialData": {"phase": "TEST", "imageID": "/static/images/imgset/0542.jpg", "caption": "an old silver car with a toy on the hood", "groundtruth": "machine", "machine_groundtruth": "ofa", "human_groundtruth": "", "response_speaker": "human", "response_gender": "female", "hit": true, "counterbalance": 91, "rt": 7417, "trial": 4}}, "Trial_145": {"workerID": "debug2EJxh", "workerData": {"native": "yes", "age": "21-25", "gender": "female", "education": "high school", "country": "United States", "engagement": "5", "difficulty": "3", "imagetype": "near-domain"}, "trialData": {"phase": "TEST", "imageID": "/static/images/imgset/0703.jpg", "caption": "a bottle of beer next to a wine glass", "groundtruth": "machine", "machine_groundtruth": "git", "human_groundtruth": "", "response_speaker": "human", "response_gender": "male", "hit": true, "counterbalance": 91, "rt": 54417, "trial": 5}}, "Trial_146": {"workerID": "debug2EJxh", "workerData": {"native": "yes", "age": "21-25", "gender": "female", "education": "high school", "country": "United States", "engagement": "5", "difficulty": "3", "imagetype": "near-domain"}, "trialData": {"phase": "TEST", "imageID": "/static/images/imgset/0525.jpg", "caption": "a woman getting ready to go snorkeling in the water", "groundtruth": "human", "machine_groundtruth": "", "human_groundtruth": "Participant_87", "response_speaker": "machine", "response_gender": "male", "hit": true, "counterbalance": 91, "rt": 6500, "trial": 6}}, "Trial_147": {"workerID": "debug2EJxh", "workerData": {"native": "yes", "age": "21-25", "gender": "female", "education": "high school", "country": "United States", "engagement": "5", "difficulty": "3", "imagetype": "near-domain"}, "trialData": {"phase": "TEST", "imageID": "/static/images/imgset/0824.jpg", "caption": "a seahorse in the water with seaweeds behind it", "groundtruth": "human", "machine_groundtruth": "", "human_groundtruth": "Participant_95", "response_speaker": "human", "response_gender": "male", "hit": true, "counterbalance": 91, "rt": 22733, "trial": 7}}, "Trial_148": {"workerID": "debug2EJxh", "workerData": {"native": "yes", "age": "21-25", "gender": "female", "education": "high school", "country": "United States", "engagement": "5", "difficulty": "3", "imagetype": "near-domain"}, "trialData": {"phase": "TEST", "imageID": "/static/images/imgset/0108.jpg", "caption": "a bench with a sign on it", "groundtruth": "human", "machine_groundtruth": "", "human_groundtruth": "Participant_176", "response_speaker": "machine", "response_gender": "male", "hit": true, "counterbalance": 91, "rt": 7299, "trial": 8}}, "Trial_149": {"workerID": "debug2EJxh", "workerData": {"native": "yes", "age": "21-25", "gender": "female", "education": "high school", "country": "United States", "engagement": "5", "difficulty": "3", "imagetype": "near-domain"}, "trialData": {"phase": "TEST", "imageID": "/static/images/imgset/0040.jpg", "caption": "a man and a dog playing frisbee in a park", "groundtruth": "human", "machine_groundtruth": "", "human_groundtruth": "Participant_11", "response_speaker": "human", "response_gender": "female", "hit": true, "counterbalance": 91, "rt": 25300, "trial": 9}}, "Trial_150": {"workerID": "debug2EJxh", "workerData": {"native": "yes", "age": "21-25", "gender": "female", "education": "high school", "country": "United States", "engagement": "5", "difficulty": "3", "imagetype": "near-domain"}, "trialData": {"phase": "TEST", "imageID": "/static/images/imgset/0349.jpg", "caption": "a white car with red lights", "groundtruth": "machine", "machine_groundtruth": "microsoft_api", "human_groundtruth": "", "response_speaker": "machine", "response_gender": "female", "hit": true, "counterbalance": 91, "rt": 21365, "trial": 10}}, "Trial_151": {"workerID": "debug2EJxh", "workerData": {"native": "yes", "age": "21-25", "gender": "female", "education": "high school", "country": "United States", "engagement": "5", "difficulty": "3", "imagetype": "near-domain"}, "trialData": {"phase": "TEST", "imageID": "/static/images/imgset/0423.jpg", "caption": "a close up of a girl with a stripe on her hair", "groundtruth": "machine", "machine_groundtruth": "clipcap", "human_groundtruth": "", "response_speaker": "machine", "response_gender": "male", "hit": true, "counterbalance": 91, "rt": 7985, "trial": 11}}, "Trial_152": {"workerID": "debug2EJxh", "workerData": {"native": "yes", "age": "21-25", "gender": "female", "education": "high school", "country": "United States", "engagement": "5", "difficulty": "3", "imagetype": "near-domain"}, "trialData": {"phase": "TEST", "imageID": "/static/images/imgset/0309.jpg", "caption": "a man on a motorcycle air born on a hill", "groundtruth": "human", "machine_groundtruth": "", "human_groundtruth": "Participant_165", "response_speaker": "human", "response_gender": "male", "hit": true, "counterbalance": 91, "rt": 14916, "trial": 12}}, "Trial_153": {"workerID": "debug2EJxh", "workerData": {"native": "yes", "age": "21-25", "gender": "female", "education": "high school", "country": "United States", "engagement": "5", "difficulty": "3", "imagetype": "near-domain"}, "trialData": {"phase": "TEST", "imageID": "/static/images/imgset/0552.jpg", "caption": "a clock tower with a bell", "groundtruth": "machine", "machine_groundtruth": "microsoft_api", "human_groundtruth": "", "response_speaker": "machine", "response_gender": "male", "hit": true, "counterbalance": 91, "rt": 17216, "trial": 13}}, "Trial_154": {"workerID": "debug2EJxh", "workerData": {"native": "yes", "age": "21-25", "gender": "female", "education": "high school", "country": "United States", "engagement": "5", "difficulty": "3", "imagetype": "near-domain"}, "trialData": {"phase": "TEST", "imageID": "/static/images/imgset/0417.jpg", "caption": "a man in a suit holding a small device", "groundtruth": "human", "machine_groundtruth": "", "human_groundtruth": "Participant_191", "response_speaker": "machine", "response_gender": "male", "hit": true, "counterbalance": 91, "rt": 9951, "trial": 14}}, "Trial_155": {"workerID": "debug2EJxh", "workerData": {"native": "yes", "age": "21-25", "gender": "female", "education": "high school", "country": "United States", "engagement": "5", "difficulty": "3", "imagetype": "near-domain"}, "trialData": {"phase": "TEST", "imageID": "/static/images/imgset/0674.jpg", "caption": "a couple stands in front of a land rover as if checking it out", "groundtruth": "human", "machine_groundtruth": "", "human_groundtruth": "Participant_229", "response_speaker": "human", "response_gender": "female", "hit": true, "counterbalance": 91, "rt": 29167, "trial": 15}}, "Trial_156": {"workerID": "debug2EJxh", "workerData": {"native": "yes", "age": "21-25", "gender": "female", "education": "high school", "country": "United States", "engagement": "5", "difficulty": "3", "imagetype": "near-domain"}, "trialData": {"phase": "TEST", "imageID": "/static/images/imgset/0013.jpg", "caption": "a clock on the side of a building on the side of a building", "groundtruth": "machine", "machine_groundtruth": "clipcap", "human_groundtruth": "", "response_speaker": "machine", "response_gender": "male", "hit": true, "counterbalance": 91, "rt": 23001, "trial": 16}}, "Trial_157": {"workerID": "debug2EJxh", "workerData": {"native": "yes", "age": "21-25", "gender": "female", "education": "high school", "country": "United States", "engagement": "5", "difficulty": "3", "imagetype": "near-domain"}, "trialData": {"phase": "TEST", "imageID": "/static/images/imgset/0383.jpg", "caption": "a little girl wearing a pink dress standing on a concrete area", "groundtruth": "human", "machine_groundtruth": "", "human_groundtruth": "Participant_55", "response_speaker": "machine", "response_gender": "male", "hit": true, "counterbalance": 91, "rt": 10916, "trial": 17}}, "Trial_158": {"workerID": "debug2EJxh", "workerData": {"native": "yes", "age": "21-25", "gender": "female", "education": "high school", "country": "United States", "engagement": "5", "difficulty": "3", "imagetype": "near-domain"}, "trialData": {"phase": "TEST", "imageID": "/static/images/imgset/0055.jpg", "caption": "a man swinging a bat at a baseball game", "groundtruth": "machine", "machine_groundtruth": "blip", "human_groundtruth": "", "response_speaker": "human", "response_gender": "female", "hit": true, "counterbalance": 91, "rt": 7967, "trial": 18}}, "Trial_159": {"workerID": "debug2EJxh", "workerData": {"native": "yes", "age": "21-25", "gender": "female", "education": "high school", "country": "United States", "engagement": "5", "difficulty": "3", "imagetype": "near-domain"}, "trialData": {"phase": "TEST", "imageID": "/static/images/imgset/0695.jpg", "caption": "a little girl in a red coat holding an umbrella", "groundtruth": "machine", "machine_groundtruth": "blip", "human_groundtruth": "", "response_speaker": "human", "response_gender": "female", "hit": true, "counterbalance": 91, "rt": 6633, "trial": 19}}, "Trial_160": {"workerID": "debug2EJxh", "workerData": {"native": "yes", "age": "21-25", "gender": "female", "education": "high school", "country": "United States", "engagement": "5", "difficulty": "3", "imagetype": "near-domain"}, "trialData": {"phase": "TEST", "imageID": "/static/images/imgset/0730.jpg", "caption": "a woman holding a cup of coffee", "groundtruth": "human", "machine_groundtruth": "", "human_groundtruth": "Participant_105", "response_speaker": "human", "response_gender": "male", "hit": true, "counterbalance": 91, "rt": 8500, "trial": 20}}, "Trial_161": {"workerID": "debugspxXa", "workerData": {"native": "no", "age": "26-30", "gender": "female", "education": "master", "country": "Macedonia, The Former Yugoslav Republic of", "engagement": "7", "difficulty": "7", "imagetype": "near-domain"}, "trialData": {"phase": "TEST", "imageID": "/static/images/imgset/0901.jpg", "caption": "a spotted leopard looks directly onward with trees in the background", "groundtruth": "human", "machine_groundtruth": "", "human_groundtruth": "Participant_176", "response_speaker": "human", "response_gender": "female", "hit": true, "counterbalance": 419, "rt": 10180, "trial": 1}}, "Trial_162": {"workerID": "debugspxXa", "workerData": {"native": "no", "age": "26-30", "gender": "female", "education": "master", "country": "Macedonia, The Former Yugoslav Republic of", "engagement": "7", "difficulty": "7", "imagetype": "near-domain"}, "trialData": {"phase": "TEST", "imageID": "/static/images/imgset/0961.jpg", "caption": "a furry creature clinging to slender tree branches", "groundtruth": "human", "machine_groundtruth": "", "human_groundtruth": "Participant_135", "response_speaker": "machine", "response_gender": "male", "hit": true, "counterbalance": 419, "rt": 7405, "trial": 2}}, "Trial_163": {"workerID": "debugspxXa", "workerData": {"native": "no", "age": "26-30", "gender": "female", "education": "master", "country": "Macedonia, The Former Yugoslav Republic of", "engagement": "7", "difficulty": "7", "imagetype": "near-domain"}, "trialData": {"phase": "TEST", "imageID": "/static/images/imgset/0444.jpg", "caption": "a man in a suit is sitting in front of a laptop listening intently at something", "groundtruth": "human", "machine_groundtruth": "", "human_groundtruth": "Participant_7", "response_speaker": "human", "response_gender": "female", "hit": true, "counterbalance": 419, "rt": 14874, "trial": 3}}, "Trial_164": {"workerID": "debugspxXa", "workerData": {"native": "no", "age": "26-30", "gender": "female", "education": "master", "country": "Macedonia, The Former Yugoslav Republic of", "engagement": "7", "difficulty": "7", "imagetype": "near-domain"}, "trialData": {"phase": "TEST", "imageID": "/static/images/imgset/0774.jpg", "caption": "a bird sitting on a tree", "groundtruth": "machine", "machine_groundtruth": "microsoft_api", "human_groundtruth": "", "response_speaker": "human", "response_gender": "male", "hit": true, "counterbalance": 419, "rt": 8815, "trial": 4}}, "Trial_165": {"workerID": "debugspxXa", "workerData": {"native": "no", "age": "26-30", "gender": "female", "education": "master", "country": "Macedonia, The Former Yugoslav Republic of", "engagement": "7", "difficulty": "7", "imagetype": "near-domain"}, "trialData": {"phase": "TEST", "imageID": "/static/images/imgset/0646.jpg", "caption": "a man sitting at a table in front of a group of people", "groundtruth": "machine", "machine_groundtruth": "clipcap", "human_groundtruth": "", "response_speaker": "machine", "response_gender": "male", "hit": true, "counterbalance": 419, "rt": 8911, "trial": 5}}, "Trial_166": {"workerID": "debugspxXa", "workerData": {"native": "no", "age": "26-30", "gender": "female", "education": "master", "country": "Macedonia, The Former Yugoslav Republic of", "engagement": "7", "difficulty": "7", "imagetype": "near-domain"}, "trialData": {"phase": "TEST", "imageID": "/static/images/imgset/0972.jpg", "caption": "a tall building with many windows", "groundtruth": "machine", "machine_groundtruth": "microsoft_api", "human_groundtruth": "", "response_speaker": "human", "response_gender": "female", "hit": true, "counterbalance": 419, "rt": 6230, "trial": 6}}, "Trial_167": {"workerID": "debugspxXa", "workerData": {"native": "no", "age": "26-30", "gender": "female", "education": "master", "country": "Macedonia, The Former Yugoslav Republic of", "engagement": "7", "difficulty": "7", "imagetype": "near-domain"}, "trialData": {"phase": "TEST", "imageID": "/static/images/imgset/0549.jpg", "caption": "a baggage handler sits in the baggage hold of an american airlines plane while playing with his phone", "groundtruth": "human", "machine_groundtruth": "", "human_groundtruth": "Participant_84", "response_speaker": "human", "response_gender": "female", "hit": true, "counterbalance": 419, "rt": 17030, "trial": 7}}, "Trial_168": {"workerID": "debugspxXa", "workerData": {"native": "no", "age": "26-30", "gender": "female", "education": "master", "country": "Macedonia, The Former Yugoslav Republic of", "engagement": "7", "difficulty": "7", "imagetype": "near-domain"}, "trialData": {"phase": "TEST", "imageID": "/static/images/imgset/0760.jpg", "caption": "a tall brick building stands high against a cloudy sky", "groundtruth": "human", "machine_groundtruth": "", "human_groundtruth": "Participant_166", "response_speaker": "human", "response_gender": "male", "hit": true, "counterbalance": 419, "rt": 10479, "trial": 8}}, "Trial_169": {"workerID": "debugspxXa", "workerData": {"native": "no", "age": "26-30", "gender": "female", "education": "master", "country": "Macedonia, The Former Yugoslav Republic of", "engagement": "7", "difficulty": "7", "imagetype": "near-domain"}, "trialData": {"phase": "TEST", "imageID": "/static/images/imgset/0459.jpg", "caption": "a man and a woman sit in a small orange car", "groundtruth": "human", "machine_groundtruth": "", "human_groundtruth": "Participant_59", "response_speaker": "human", "response_gender": "female", "hit": true, "counterbalance": 419, "rt": 7128, "trial": 9}}, "Trial_170": {"workerID": "debugspxXa", "workerData": {"native": "no", "age": "26-30", "gender": "female", "education": "master", "country": "Macedonia, The Former Yugoslav Republic of", "engagement": "7", "difficulty": "7", "imagetype": "near-domain"}, "trialData": {"phase": "TEST", "imageID": "/static/images/imgset/0873.jpg", "caption": "two men in fencing gear holding a sword", "groundtruth": "machine", "machine_groundtruth": "git", "human_groundtruth": "", "response_speaker": "human", "response_gender": "female", "hit": true, "counterbalance": 419, "rt": 14921, "trial": 10}}, "Trial_171": {"workerID": "debugspxXa", "workerData": {"native": "no", "age": "26-30", "gender": "female", "education": "master", "country": "Macedonia, The Former Yugoslav Republic of", "engagement": "7", "difficulty": "7", "imagetype": "near-domain"}, "trialData": {"phase": "TEST", "imageID": "/static/images/imgset/0187.jpg", "caption": "an elephant standing up behind a rock", "groundtruth": "human", "machine_groundtruth": "", "human_groundtruth": "Participant_96", "response_speaker": "human", "response_gender": "female", "hit": true, "counterbalance": 419, "rt": 7954, "trial": 11}}, "Trial_172": {"workerID": "debugspxXa", "workerData": {"native": "no", "age": "26-30", "gender": "female", "education": "master", "country": "Macedonia, The Former Yugoslav Republic of", "engagement": "7", "difficulty": "7", "imagetype": "near-domain"}, "trialData": {"phase": "TEST", "imageID": "/static/images/imgset/0684.jpg", "caption": "a group of men playing a game of football", "groundtruth": "machine", "machine_groundtruth": "blip", "human_groundtruth": "", "response_speaker": "machine", "response_gender": "male", "hit": true, "counterbalance": 419, "rt": 9708, "trial": 12}}, "Trial_173": {"workerID": "debugspxXa", "workerData": {"native": "no", "age": "26-30", "gender": "female", "education": "master", "country": "Macedonia, The Former Yugoslav Republic of", "engagement": "7", "difficulty": "7", "imagetype": "near-domain"}, "trialData": {"phase": "TEST", "imageID": "/static/images/imgset/0487.jpg", "caption": "a bride and groom talking to a group of people", "groundtruth": "machine", "machine_groundtruth": "ofa", "human_groundtruth": "", "response_speaker": "human", "response_gender": "male", "hit": true, "counterbalance": 419, "rt": 7953, "trial": 13}}, "Trial_174": {"workerID": "debugspxXa", "workerData": {"native": "no", "age": "26-30", "gender": "female", "education": "master", "country": "Macedonia, The Former Yugoslav Republic of", "engagement": "7", "difficulty": "7", "imagetype": "near-domain"}, "trialData": {"phase": "TEST", "imageID": "/static/images/imgset/0778.jpg", "caption": "an antelope with large horns standing in front of a painting", "groundtruth": "machine", "machine_groundtruth": "blip", "human_groundtruth": "", "response_speaker": "machine", "response_gender": "female", "hit": true, "counterbalance": 419, "rt": 11287, "trial": 14}}, "Trial_175": {"workerID": "debugspxXa", "workerData": {"native": "no", "age": "26-30", "gender": "female", "education": "master", "country": "Macedonia, The Former Yugoslav Republic of", "engagement": "7", "difficulty": "7", "imagetype": "near-domain"}, "trialData": {"phase": "TEST", "imageID": "/static/images/imgset/0127.jpg", "caption": "an elderly man with glasses and hat rides a bicycle on the road", "groundtruth": "human", "machine_groundtruth": "", "human_groundtruth": "Participant_159", "response_speaker": "human", "response_gender": "male", "hit": true, "counterbalance": 419, "rt": 17238, "trial": 15}}, "Trial_176": {"workerID": "debugspxXa", "workerData": {"native": "no", "age": "26-30", "gender": "female", "education": "master", "country": "Macedonia, The Former Yugoslav Republic of", "engagement": "7", "difficulty": "7", "imagetype": "near-domain"}, "trialData": {"phase": "TEST", "imageID": "/static/images/imgset/0003.jpg", "caption": "a woman holding a large black remote control", "groundtruth": "machine", "machine_groundtruth": "clipcap", "human_groundtruth": "", "response_speaker": "machine", "response_gender": "female", "hit": true, "counterbalance": 419, "rt": 6704, "trial": 16}}, "Trial_177": {"workerID": "debugspxXa", "workerData": {"native": "no", "age": "26-30", "gender": "female", "education": "master", "country": "Macedonia, The Former Yugoslav Republic of", "engagement": "7", "difficulty": "7", "imagetype": "near-domain"}, "trialData": {"phase": "TEST", "imageID": "/static/images/imgset/0224.jpg", "caption": "a man talking on a telephone while a woman watches him", "groundtruth": "human", "machine_groundtruth": "", "human_groundtruth": "Participant_151", "response_speaker": "human", "response_gender": "male", "hit": true, "counterbalance": 419,