{"inlab": {"Trial_1": {"workerID": "A1C6UZ7E8MUSRF", "workerData": {"country": "Singapore", "age": "26-30", "engagement": "6", "difficulty": "8", "mode": "sandbox", "gender": "male", "education": "bachelor", "condition": 0, "native": "yes"}, "trialData": {"rt": 12402, "hit": "participant_39", "trial": 1, "response_speaker": "human", "machine_groundtruth": "word2vec", "imageID": 39, "caption": "revolutionary", "counterbalance": 0, "groundtruth": "machine", "phase": "TEST", "human_groundtruth": "", "real_gender": "", "response_gender": "female"}}, "Trial_2": {"workerID": "A1C6UZ7E8MUSRF", "workerData": {"country": "Singapore", "age": "26-30", "engagement": "6", "difficulty": "8", "mode": "sandbox", "gender": "male", "education": "bachelor", "condition": 0, "native": "yes"}, "trialData": {"rt": 16679, "hit": "participant_11", "trial": 2, "response_speaker": "machine", "machine_groundtruth": "gpt3 (prompt davinvci)", "imageID": 11, "caption": "technician", "counterbalance": 0, "groundtruth": "machine", "phase": "TEST", "human_groundtruth": "", "real_gender": "", "response_gender": "male"}}, "Trial_3": {"workerID": "A1C6UZ7E8MUSRF", "workerData": {"country": "Singapore", "age": "26-30", "engagement": "6", "difficulty": "8", "mode": "sandbox", "gender": "male", "education": "bachelor", "condition": 0, "native": "yes"}, "trialData": {"rt": 15752, "hit": "participant_22", "trial": 3, "response_speaker": "human", "machine_groundtruth": "", "imageID": 22, "caption": "attentive", "counterbalance": 0, "groundtruth": "human", "phase": "TEST", "human_groundtruth": "human", "real_gender": "male", "response_gender": "male"}}, "Trial_4": {"workerID": "A1C6UZ7E8MUSRF", "workerData": {"country": "Singapore", "age": "26-30", "engagement": "6", "difficulty": "8", "mode": "sandbox", "gender": "male", "education": "bachelor", "condition": 0, "native": "yes"}, "trialData": {"rt": 12718, "hit": "participant_38", "trial": 5, "response_speaker": "machine", "machine_groundtruth": "", "imageID": 38, "caption": "mammalian", "counterbalance": 0, "groundtruth": "human", "phase": "TEST", "human_groundtruth": "human", "real_gender": "male", "response_gender": "male"}}, "Trial_5": {"workerID": "A1C6UZ7E8MUSRF", "workerData": {"country": "Singapore", "age": "26-30", "engagement": "6", "difficulty": "8", "mode": "sandbox", "gender": "male", "education": "bachelor", "condition": 0, "native": "yes"}, "trialData": {"rt": 9742, "hit": "participant_29", "trial": 8, "response_speaker": "human", "machine_groundtruth": "gpt3 (prompt davinvci)", "imageID": 29, "caption": "rebellious", "counterbalance": 0, "groundtruth": "machine", "phase": "TEST", "human_groundtruth": "", "real_gender": "", "response_gender": "female"}}, "Trial_6": {"workerID": "A1C6UZ7E8MUSRF", "workerData": {"country": "Singapore", "age": "26-30", "engagement": "6", "difficulty": "8", "mode": "sandbox", "gender": "male", "education": "bachelor", "condition": 0, "native": "yes"}, "trialData": {"rt": 11518, "hit": "participant_91", "trial": 10, "response_speaker": "machine", "machine_groundtruth": "", "imageID": 91, "caption": "brighton", "counterbalance": 0, "groundtruth": "human", "phase": "TEST", "human_groundtruth": "human", "real_gender": "male", "response_gender": "male"}}, "Trial_7": {"workerID": "A1C6UZ7E8MUSRF", "workerData": {"country": "Singapore", "age": "26-30", "engagement": "6", "difficulty": "8", "mode": "sandbox", "gender": "male", "education": "bachelor", "condition": 0, "native": "yes"}, "trialData": {"rt": 16664, "hit": "participant_63", "trial": 11, "response_speaker": "human", "machine_groundtruth": "", "imageID": 63, "caption": "material", "counterbalance": 0, "groundtruth": "human", "phase": "TEST", "human_groundtruth": "human", "real_gender": "male", "response_gender": "male"}}, "Trial_8": {"workerID": "A1C6UZ7E8MUSRF", "workerData": {"country": "Singapore", "age": "26-30", "engagement": "6", "difficulty": "8", "mode": "sandbox", "gender": "male", "education": "bachelor", "condition": 0, "native": "yes"}, "trialData": {"rt": 12439, "hit": "participant_125", "trial": 12, "response_speaker": "machine", "machine_groundtruth": "", "imageID": 125, "caption": "establish", "counterbalance": 0, "groundtruth": "human", "phase": "TEST", "human_groundtruth": "human", "real_gender": "male", "response_gender": "male"}}, "Trial_9": {"workerID": "A1C6UZ7E8MUSRF", "workerData": {"country": "Singapore", "age": "26-30", "engagement": "6", "difficulty": "8", "mode": "sandbox", "gender": "male", "education": "bachelor", "condition": 0, "native": "yes"}, "trialData": {"rt": 10038, "hit": "participant_30", "trial": 14, "response_speaker": "human", "machine_groundtruth": "gpt3 (prompt curie)", "imageID": 30, "caption": "ingenious", "counterbalance": 0, "groundtruth": "machine", "phase": "TEST", "human_groundtruth": "", "real_gender": "", "response_gender": "female"}}, "Trial_10": {"workerID": "A1C6UZ7E8MUSRF", "workerData": {"country": "Singapore", "age": "26-30", "engagement": "6", "difficulty": "8", "mode": "sandbox", "gender": "male", "education": "bachelor", "condition": 0, "native": "yes"}, "trialData": {"rt": 5449, "hit": "participant_66", "trial": 15, "response_speaker": "machine", "machine_groundtruth": "gpt3 (embedding)", "imageID": 66, "caption": "battlefield", "counterbalance": 0, "groundtruth": "machine", "phase": "TEST", "human_groundtruth": "", "real_gender": "", "response_gender": "male"}}, "Trial_11": {"workerID": "A1C6UZ7E8MUSRF", "workerData": {"country": "Singapore", "age": "26-30", "engagement": "6", "difficulty": "8", "mode": "sandbox", "gender": "male", "education": "bachelor", "condition": 0, "native": "yes"}, "trialData": {"rt": 8151, "hit": "participant_19", "trial": 16, "response_speaker": "human", "machine_groundtruth": "", "imageID": 19, "caption": "exclusive", "counterbalance": 0, "groundtruth": "human", "phase": "TEST", "human_groundtruth": "human", "real_gender": "male", "response_gender": "female"}}, "Trial_12": {"workerID": "A1C6UZ7E8MUSRF", "workerData": {"country": "Singapore", "age": "26-30", "engagement": "6", "difficulty": "8", "mode": "sandbox", "gender": "male", "education": "bachelor", "condition": 0, "native": "yes"}, "trialData": {"rt": 11703, "hit": "participant_114", "trial": 17, "response_speaker": "human", "machine_groundtruth": "", "imageID": 114, "caption": "infrared", "counterbalance": 0, "groundtruth": "human", "phase": "TEST", "human_groundtruth": "human", "real_gender": "female", "response_gender": "female"}}, "Trial_13": {"workerID": "A1C6UZ7E8MUSRF", "workerData": {"country": "Singapore", "age": "26-30", "engagement": "6", "difficulty": "8", "mode": "sandbox", "gender": "male", "education": "bachelor", "condition": 0, "native": "yes"}, "trialData": {"rt": 9168, "hit": "participant_58", "trial": 20, "response_speaker": "human", "machine_groundtruth": "", "imageID": 58, "caption": "dame", "counterbalance": 0, "groundtruth": "human", "phase": "TEST", "human_groundtruth": "human", "real_gender": "female", "response_gender": "male"}}, "Trial_14": {"workerID": "A1C6UZ7E8MUSRF", "workerData": {"country": "Singapore", "age": "26-30", "engagement": "6", "difficulty": "8", "mode": "sandbox", "gender": "male", "education": "bachelor", "condition": 0, "native": "yes"}, "trialData": {"rt": 11087, "hit": "participant_74", "trial": 21, "response_speaker": "machine", "machine_groundtruth": "", "imageID": 74, "caption": "nixon", "counterbalance": 0, "groundtruth": "human", "phase": "TEST", "human_groundtruth": "human", "real_gender": "male", "response_gender": "male"}}, "Trial_15": {"workerID": "A1C6UZ7E8MUSRF", "workerData": {"country": "Singapore", "age": "26-30", "engagement": "6", "difficulty": "8", "mode": "sandbox", "gender": "male", "education": "bachelor", "condition": 0, "native": "yes"}, "trialData": {"rt": 13367, "hit": "participant_27", "trial": 22, "response_speaker": "human", "machine_groundtruth": "word2vec", "imageID": 27, "caption": "obnoxious", "counterbalance": 0, "groundtruth": "machine", "phase": "TEST", "human_groundtruth": "", "real_gender": "", "response_gender": "female"}}, "Trial_16": {"workerID": "A1C6UZ7E8MUSRF", "workerData": {"country": "Singapore", "age": "26-30", "engagement": "6", "difficulty": "8", "mode": "sandbox", "gender": "male", "education": "bachelor", "condition": 0, "native": "yes"}, "trialData": {"rt": 6409, "hit": "participant_111", "trial": 26, "response_speaker": "human", "machine_groundtruth": "", "imageID": 111, "caption": "ping", "counterbalance": 0, "groundtruth": "human", "phase": "TEST", "human_groundtruth": "human", "real_gender": "male", "response_gender": "male"}}, "Trial_17": {"workerID": "A1C6UZ7E8MUSRF", "workerData": {"country": "Singapore", "age": "26-30", "engagement": "6", "difficulty": "8", "mode": "sandbox", "gender": "male", "education": "bachelor", "condition": 0, "native": "yes"}, "trialData": {"rt": 6039, "hit": "participant_65", "trial": 28, "response_speaker": "human", "machine_groundtruth": "", "imageID": 65, "caption": "zombie", "counterbalance": 0, "groundtruth": "human", "phase": "TEST", "human_groundtruth": "human", "real_gender": "male", "response_gender": "male"}}, "Trial_18": {"workerID": "A1C6UZ7E8MUSRF", "workerData": {"country": "Singapore", "age": "26-30", "engagement": "6", "difficulty": "8", "mode": "sandbox", "gender": "male", "education": "bachelor", "condition": 0, "native": "yes"}, "trialData": {"rt": 6639, "hit": "participant_67", "trial": 31, "response_speaker": "machine", "machine_groundtruth": "word2vec", "imageID": 67, "caption": "dodge", "counterbalance": 0, "groundtruth": "machine", "phase": "TEST", "human_groundtruth": "", "real_gender": "", "response_gender": "male"}}, "Trial_19": {"workerID": "A1C6UZ7E8MUSRF", "workerData": {"country": "Singapore", "age": "26-30", "engagement": "6", "difficulty": "8", "mode": "sandbox", "gender": "male", "education": "bachelor", "condition": 0, "native": "yes"}, "trialData": {"rt": 8398, "hit": "participant_132", "trial": 32, "response_speaker": "human", "machine_groundtruth": "gpt3 (embedding)", "imageID": 132, "caption": "succeed", "counterbalance": 0, "groundtruth": "machine", "phase": "TEST", "human_groundtruth": "", "real_gender": "", "response_gender": "male"}}, "Trial_20": {"workerID": "A1C6UZ7E8MUSRF", "workerData": {"country": "Singapore", "age": "26-30", "engagement": "6", "difficulty": "8", "mode": "sandbox", "gender": "male", "education": "bachelor", "condition": 0, "native": "yes"}, "trialData": {"rt": 12224, "hit": "participant_73", "trial": 35, "response_speaker": "human", "machine_groundtruth": "gpt2", "imageID": 73, "caption": "ammunition", "counterbalance": 0, "groundtruth": "machine", "phase": "TEST", "human_groundtruth": "", "real_gender": "", "response_gender": "male"}}, "Trial_21": {"workerID": "A1C6UZ7E8MUSRF", "workerData": {"country": "Singapore", "age": "26-30", "engagement": "6", "difficulty": "8", "mode": "sandbox", "gender": "male", "education": "bachelor", "condition": 0, "native": "yes"}, "trialData": {"rt": 9767, "hit": "participant_123", "trial": 36, "response_speaker": "human", "machine_groundtruth": "", "imageID": 123, "caption": "watershed", "counterbalance": 0, "groundtruth": "human", "phase": "TEST", "human_groundtruth": "human", "real_gender": "male", "response_gender": "female"}}, "Trial_22": {"workerID": "A1C6UZ7E8MUSRF", "workerData": {"country": "Singapore", "age": "26-30", "engagement": "6", "difficulty": "8", "mode": "sandbox", "gender": "male", "education": "bachelor", "condition": 0, "native": "yes"}, "trialData": {"rt": 8559, "hit": "participant_106", "trial": 37, "response_speaker": "machine", "machine_groundtruth": "gpt3 (prompt davinvci)", "imageID": 106, "caption": "kindle", "counterbalance": 0, "groundtruth": "machine", "phase": "TEST", "human_groundtruth": "", "real_gender": "", "response_gender": "female"}}, "Trial_23": {"workerID": "A1C6UZ7E8MUSRF", "workerData": {"country": "Singapore", "age": "26-30", "engagement": "6", "difficulty": "8", "mode": "sandbox", "gender": "male", "education": "bachelor", "condition": 0, "native": "yes"}, "trialData": {"rt": 6248, "hit": "participant_77", "trial": 38, "response_speaker": "human", "machine_groundtruth": "gpt2", "imageID": 77, "caption": "discretion", "counterbalance": 0, "groundtruth": "machine", "phase": "TEST", "human_groundtruth": "", "real_gender": "", "response_gender": "female"}}, "Trial_24": {"workerID": "A1C6UZ7E8MUSRF", "workerData": {"country": "Singapore", "age": "26-30", "engagement": "6", "difficulty": "8", "mode": "sandbox", "gender": "male", "education": "bachelor", "condition": 0, "native": "yes"}, "trialData": {"rt": 15231, "hit": "participant_120", "trial": 39, "response_speaker": "human", "machine_groundtruth": "", "imageID": 120, "caption": "identify", "counterbalance": 0, "groundtruth": "human", "phase": "TEST", "human_groundtruth": "human", "real_gender": "male", "response_gender": "female"}}, "Trial_25": {"workerID": "A1C6UZ7E8MUSRF", "workerData": {"country": "Singapore", "age": "26-30", "engagement": "6", "difficulty": "8", "mode": "sandbox", "gender": "male", "education": "bachelor", "condition": 0, "native": "yes"}, "trialData": {"rt": 8521, "hit": "participant_138", "trial": 40, "response_speaker": "human", "machine_groundtruth": "gpt2", "imageID": 138, "caption": "enclave", "counterbalance": 0, "groundtruth": "machine", "phase": "TEST", "human_groundtruth": "", "real_gender": "", "response_gender": "female"}}, "Trial_26": {"workerID": "A1C6UZ7E8MUSRF", "workerData": {"country": "Singapore", "age": "26-30", "engagement": "6", "difficulty": "8", "mode": "sandbox", "gender": "male", "education": "bachelor", "condition": 0, "native": "yes"}, "trialData": {"rt": 8694, "hit": "participant_42", "trial": 43, "response_speaker": "machine", "machine_groundtruth": "gpt3 (prompt davinvci)", "imageID": 42, "caption": "suspicious", "counterbalance": 0, "groundtruth": "machine", "phase": "TEST", "human_groundtruth": "", "real_gender": "", "response_gender": "female"}}, "Trial_27": {"workerID": "A1C6UZ7E8MUSRF", "workerData": {"country": "Singapore", "age": "26-30", "engagement": "6", "difficulty": "8", "mode": "sandbox", "gender": "male", "education": "bachelor", "condition": 0, "native": "yes"}, "trialData": {"rt": 6168, "hit": "participant_31", "trial": 47, "response_speaker": "human", "machine_groundtruth": "", "imageID": 31, "caption": "exponential", "counterbalance": 0, "groundtruth": "human", "phase": "TEST", "human_groundtruth": "human", "real_gender": "female", "response_gender": "female"}}, "Trial_28": {"workerID": "A1C6UZ7E8MUSRF", "workerData": {"country": "Singapore", "age": "26-30", "engagement": "6", "difficulty": "8", "mode": "sandbox", "gender": "male", "education": "bachelor", "condition": 0, "native": "yes"}, "trialData": {"rt": 5166, "hit": "participant_43", "trial": 49, "response_speaker": "machine", "machine_groundtruth": "", "imageID": 43, "caption": "nationwide", "counterbalance": 0, "groundtruth": "human", "phase": "TEST", "human_groundtruth": "human", "real_gender": "female", "response_gender": "female"}}, "Trial_29": {"workerID": "A1C6UZ7E8MUSRF", "workerData": {"country": "Singapore", "age": "21-25", "engagement": "1", "difficulty": "2", "mode": "sandbox", "gender": "female", "education": "bachelor", "condition": 0, "native": "yes"}, "trialData": {"rt": 11499, "hit": "participant_6", "trial": 1, "response_speaker": "human", "machine_groundtruth": "gpt3 (prompt davinvci)", "imageID": 6, "caption": "healthy", "counterbalance": 0, "groundtruth": "machine", "phase": "TEST", "human_groundtruth": "", "real_gender": "", "response_gender": "male"}}, "Trial_30": {"workerID": "A1C6UZ7E8MUSRF", "workerData": {"country": "Singapore", "age": "21-25", "engagement": "1", "difficulty": "2", "mode": "sandbox", "gender": "female", "education": "bachelor", "condition": 0, "native": "yes"}, "trialData": {"rt": 13358, "hit": "participant_48", "trial": 3, "response_speaker": "human", "machine_groundtruth": "", "imageID": 48, "caption": "military", "counterbalance": 0, "groundtruth": "human", "phase": "TEST", "human_groundtruth": "human", "real_gender": "female", "response_gender": "female"}}, "Trial_31": {"workerID": "A1C6UZ7E8MUSRF", "workerData": {"country": "Singapore", "age": "21-25", "engagement": "1", "difficulty": "2", "mode": "sandbox", "gender": "female", "education": "bachelor", "condition": 0, "native": "yes"}, "trialData": {"rt": 9128, "hit": "participant_111", "trial": 5, "response_speaker": "machine", "machine_groundtruth": "", "imageID": 111, "caption": "ping", "counterbalance": 0, "groundtruth": "human", "phase": "TEST", "human_groundtruth": "human", "real_gender": "male", "response_gender": "male"}}, "Trial_32": {"workerID": "A1C6UZ7E8MUSRF", "workerData": {"country": "Singapore", "age": "21-25", "engagement": "1", "difficulty": "2", "mode": "sandbox", "gender": "female", "education": "bachelor", "condition": 0, "native": "yes"}, "trialData": {"rt": 17390, "hit": "participant_62", "trial": 6, "response_speaker": "machine", "machine_groundtruth": "gpt3 (prompt curie)", "imageID": 62, "caption": "mainland", "counterbalance": 0, "groundtruth": "machine", "phase": "TEST", "human_groundtruth": "", "real_gender": "", "response_gender": "male"}}, "Trial_33": {"workerID": "A1C6UZ7E8MUSRF", "workerData": {"country": "Singapore", "age": "21-25", "engagement": "1", "difficulty": "2", "mode": "sandbox", "gender": "female", "education": "bachelor", "condition": 0, "native": "yes"}, "trialData": {"rt": 12672, "hit": "participant_131", "trial": 7, "response_speaker": "human", "machine_groundtruth": "word2vec", "imageID": 131, "caption": "bloodshed", "counterbalance": 0, "groundtruth": "machine", "phase": "TEST", "human_groundtruth": "", "real_gender": "", "response_gender": "female"}}, "Trial_34": {"workerID": "A1C6UZ7E8MUSRF", "workerData": {"country": "Singapore", "age": "21-25", "engagement": "1", "difficulty": "2", "mode": "sandbox", "gender": "female", "education": "bachelor", "condition": 0, "native": "yes"}, "trialData": {"rt": 8456, "hit": "participant_59", "trial": 8, "response_speaker": "human", "machine_groundtruth": "", "imageID": 59, "caption": "curry", "counterbalance": 0, "groundtruth": "human", "phase": "TEST", "human_groundtruth": "human", "real_gender": "female", "response_gender": "female"}}, "Trial_35": {"workerID": "A1C6UZ7E8MUSRF", "workerData": {"country": "Singapore", "age": "21-25", "engagement": "1", "difficulty": "2", "mode": "sandbox", "gender": "female", "education": "bachelor", "condition": 0, "native": "yes"}, "trialData": {"rt": 7031, "hit": "participant_145", "trial": 9, "response_speaker": "machine", "machine_groundtruth": "", "imageID": 145, "caption": "have", "counterbalance": 0, "groundtruth": "human", "phase": "TEST", "human_groundtruth": "human", "real_gender": "male", "response_gender": "male"}}, "Trial_36": {"workerID": "A1C6UZ7E8MUSRF", "workerData": {"country": "Singapore", "age": "21-25", "engagement": "1", "difficulty": "2", "mode": "sandbox", "gender": "female", "education": "bachelor", "condition": 0, "native": "yes"}, "trialData": {"rt": 10358, "hit": "participant_97", "trial": 12, "response_speaker": "human", "machine_groundtruth": "", "imageID": 97, "caption": "entertain", "counterbalance": 0, "groundtruth": "human", "phase": "TEST", "human_groundtruth": "human", "real_gender": "male", "response_gender": "male"}}, "Trial_37": {"workerID": "A1C6UZ7E8MUSRF", "workerData": {"country": "Singapore", "age": "21-25", "engagement": "1", "difficulty": "2", "mode": "sandbox", "gender": "female", "education": "bachelor", "condition": 0, "native": "yes"}, "trialData": {"rt": 5855, "hit": "participant_78", "trial": 16, "response_speaker": "machine", "machine_groundtruth": "", "imageID": 78, "caption": "peanut", "counterbalance": 0, "groundtruth": "human", "phase": "TEST", "human_groundtruth": "human", "real_gender": "male", "response_gender": "female"}}, "Trial_38": {"workerID": "A1C6UZ7E8MUSRF", "workerData": {"country": "Singapore", "age": "21-25", "engagement": "1", "difficulty": "2", "mode": "sandbox", "gender": "female", "education": "bachelor", "condition": 0, "native": "yes"}, "trialData": {"rt": 6574, "hit": "participant_37", "trial": 17, "response_speaker": "human", "machine_groundtruth": "", "imageID": 37, "caption": "intangible", "counterbalance": 0, "groundtruth": "human", "phase": "TEST", "human_groundtruth": "human", "real_gender": "male", "response_gender": "male"}}, "Trial_39": {"workerID": "A1C6UZ7E8MUSRF", "workerData": {"country": "Singapore", "age": "21-25", "engagement": "1", "difficulty": "2", "mode": "sandbox", "gender": "female", "education": "bachelor", "condition": 0, "native": "yes"}, "trialData": {"rt": 4519, "hit": "participant_52", "trial": 21, "response_speaker": "human", "machine_groundtruth": "", "imageID": 52, "caption": "negotiate", "counterbalance": 0, "groundtruth": "human", "phase": "TEST", "human_groundtruth": "human", "real_gender": "male", "response_gender": "female"}}, "Trial_40": {"workerID": "A1C6UZ7E8MUSRF", "workerData": {"country": "Singapore", "age": "21-25", "engagement": "1", "difficulty": "2", "mode": "sandbox", "gender": "female", "education": "bachelor", "condition": 0, "native": "yes"}, "trialData": {"rt": 6392, "hit": "participant_42", "trial": 22, "response_speaker": "machine", "machine_groundtruth": "word2vec", "imageID": 42, "caption": "suspicious", "counterbalance": 0, "groundtruth": "machine", "phase": "TEST", "human_groundtruth": "", "real_gender": "", "response_gender": "male"}}, "Trial_41": {"workerID": "A1C6UZ7E8MUSRF", "workerData": {"country": "Singapore", "age": "21-25", "engagement": "1", "difficulty": "2", "mode": "sandbox", "gender": "female", "education": "bachelor", "condition": 0, "native": "yes"}, "trialData": {"rt": 6928, "hit": "participant_88", "trial": 28, "response_speaker": "machine", "machine_groundtruth": "gpt3 (embedding)", "imageID": 88, "caption": "curtain", "counterbalance": 0, "groundtruth": "machine", "phase": "TEST", "human_groundtruth": "", "real_gender": "", "response_gender": "female"}}, "Trial_42": {"workerID": "A1C6UZ7E8MUSRF", "workerData": {"country": "Singapore", "age": "21-25", "engagement": "1", "difficulty": "2", "mode": "sandbox", "gender": "female", "education": "bachelor", "condition": 0, "native": "yes"}, "trialData": {"rt": 5022, "hit": "participant_5", "trial": 29, "response_speaker": "human", "machine_groundtruth": "", "imageID": 5, "caption": "nepal", "counterbalance": 0, "groundtruth": "human", "phase": "TEST", "human_groundtruth": "human", "real_gender": "male", "response_gender": "male"}}, "Trial_43": {"workerID": "A1C6UZ7E8MUSRF", "workerData": {"country": "Singapore", "age": "21-25", "engagement": "1", "difficulty": "2", "mode": "sandbox", "gender": "female", "education": "bachelor", "condition": 0, "native": "yes"}, "trialData": {"rt": 5848, "hit": "participant_54", "trial": 30, "response_speaker": "human", "machine_groundtruth": "", "imageID": 54, "caption": "absent", "counterbalance": 0, "groundtruth": "human", "phase": "TEST", "human_groundtruth": "human", "real_gender": "male", "response_gender": "female"}}, "Trial_44": {"workerID": "A1C6UZ7E8MUSRF", "workerData": {"country": "Singapore", "age": "21-25", "engagement": "1", "difficulty": "2", "mode": "sandbox", "gender": "female", "education": "bachelor", "condition": 0, "native": "yes"}, "trialData": {"rt": 7785, "hit": "participant_129", "trial": 31, "response_speaker": "human", "machine_groundtruth": "", "imageID": 129, "caption": "settle", "counterbalance": 0, "groundtruth": "human", "phase": "TEST", "human_groundtruth": "human", "real_gender": "male", "response_gender": "male"}}, "Trial_45": {"workerID": "A1C6UZ7E8MUSRF", "workerData": {"country": "Singapore", "age": "21-25", "engagement": "1", "difficulty": "2", "mode": "sandbox", "gender": "female", "education": "bachelor", "condition": 0, "native": "yes"}, "trialData": {"rt": 6686, "hit": "participant_64", "trial": 32, "response_speaker": "machine", "machine_groundtruth": "", "imageID": 64, "caption": "oppose", "counterbalance": 0, "groundtruth": "human", "phase": "TEST", "human_groundtruth": "human", "real_gender": "female", "response_gender": "male"}}, "Trial_46": {"workerID": "A1C6UZ7E8MUSRF", "workerData": {"country": "Singapore", "age": "21-25", "engagement": "1", "difficulty": "2", "mode": "sandbox", "gender": "female", "education": "bachelor", "condition": 0, "native": "yes"}, "trialData": {"rt": 4216, "hit": "participant_91", "trial": 33, "response_speaker": "human", "machine_groundtruth": "word2vec", "imageID": 91, "caption": "brighton", "counterbalance": 0, "groundtruth": "machine", "phase": "TEST", "human_groundtruth": "", "real_gender": "", "response_gender": "male"}}, "Trial_47": {"workerID": "A1C6UZ7E8MUSRF", "workerData": {"country": "Singapore", "age": "21-25", "engagement": "1", "difficulty": "2", "mode": "sandbox", "gender": "female", "education": "bachelor", "condition": 0, "native": "yes"}, "trialData": {"rt": 7608, "hit": "participant_23", "trial": 35, "response_speaker": "human", "machine_groundtruth": "word2vec", "imageID": 23, "caption": "impressive", "counterbalance": 0, "groundtruth": "machine", "phase": "TEST", "human_groundtruth": "", "real_gender": "", "response_gender": "female"}}, "Trial_48": {"workerID": "A1C6UZ7E8MUSRF", "workerData": {"country": "Singapore", "age": "21-25", "engagement": "1", "difficulty": "2", "mode": "sandbox", "gender": "female", "education": "bachelor", "condition": 0, "native": "yes"}, "trialData": {"rt": 6408, "hit": "participant_38", "trial": 36, "response_speaker": "machine", "machine_groundtruth": "gpt3 (embedding)", "imageID": 38, "caption": "mammalian", "counterbalance": 0, "groundtruth": "machine", "phase": "TEST", "human_groundtruth": "", "real_gender": "", "response_gender": "male"}}, "Trial_49": {"workerID": "A1C6UZ7E8MUSRF", "workerData": {"country": "Singapore", "age": "21-25", "engagement": "1", "difficulty": "2", "mode": "sandbox", "gender": "female", "education": "bachelor", "condition": 0, "native": "yes"}, "trialData": {"rt": 9455, "hit": "participant_77", "trial": 37, "response_speaker": "machine", "machine_groundtruth": "", "imageID": 77, "caption": "discretion", "counterbalance": 0, "groundtruth": "human", "phase": "TEST", "human_groundtruth": "human", "real_gender": "female", "response_gender": "male"}}, "Trial_50": {"workerID": "A1C6UZ7E8MUSRF", "workerData": {"country": "Singapore", "age": "21-25", "engagement": "1", "difficulty": "2", "mode": "sandbox", "gender": "female", "education": "bachelor", "condition": 0, "native": "yes"}, "trialData": {"rt": 5359, "hit": "participant_110", "trial": 38, "response_speaker": "human", "machine_groundtruth": "gpt3 (prompt davinvci)", "imageID": 110, "caption": "improve", "counterbalance": 0, "groundtruth": "machine", "phase": "TEST", "human_groundtruth": "", "real_gender": "", "response_gender": "male"}}, "Trial_51": {"workerID": "A1C6UZ7E8MUSRF", "workerData": {"country": "Singapore", "age": "21-25", "engagement": "1", "difficulty": "2", "mode": "sandbox", "gender": "female", "education": "bachelor", "condition": 0, "native": "yes"}, "trialData": {"rt": 8752, "hit": "participant_147", "trial": 39, "response_speaker": "machine", "machine_groundtruth": "gpt3 (prompt davinvci)", "imageID": 147, "caption": "make", "counterbalance": 0, "groundtruth": "machine", "phase": "TEST", "human_groundtruth": "", "real_gender": "", "response_gender": "female"}}, "Trial_52": {"workerID": "A1C6UZ7E8MUSRF", "workerData": {"country": "Singapore", "age": "21-25", "engagement": "1", "difficulty": "2", "mode": "sandbox", "gender": "female", "education": "bachelor", "condition": 0, "native": "yes"}, "trialData": {"rt": 4776, "hit": "participant_67", "trial": 40, "response_speaker": "human", "machine_groundtruth": "gpt3 (embedding)", "imageID": 67, "caption": "dodge", "counterbalance": 0, "groundtruth": "machine", "phase": "TEST", "human_groundtruth": "", "real_gender": "", "response_gender": "male"}}, "Trial_53": {"workerID": "A1C6UZ7E8MUSRF", "workerData": {"country": "Singapore", "age": "21-25", "engagement": "1", "difficulty": "2", "mode": "sandbox", "gender": "female", "education": "bachelor", "condition": 0, "native": "yes"}, "trialData": {"rt": 3727, "hit": "participant_73", "trial": 41, "response_speaker": "human", "machine_groundtruth": "", "imageID": 73, "caption": "ammunition", "counterbalance": 0, "groundtruth": "human", "phase": "TEST", "human_groundtruth": "human", "real_gender": "female", "response_gender": "male"}}, "Trial_54": {"workerID": "A1C6UZ7E8MUSRF", "workerData": {"country": "Singapore", "age": "21-25", "engagement": "1", "difficulty": "2", "mode": "sandbox", "gender": "female", "education": "bachelor", "condition": 0, "native": "yes"}, "trialData": {"rt": 6215, "hit": "participant_99", "trial": 42, "response_speaker": "machine", "machine_groundtruth": "gpt3 (prompt curie)", "imageID": 99, "caption": "prototype", "counterbalance": 0, "groundtruth": "machine", "phase": "TEST", "human_groundtruth": "", "real_gender": "", "response_gender": "male"}}, "Trial_55": {"workerID": "A1C6UZ7E8MUSRF", "workerData": {"country": "Singapore", "age": "21-25", "engagement": "1", "difficulty": "2", "mode": "sandbox", "gender": "female", "education": "bachelor", "condition": 0, "native": "yes"}, "trialData": {"rt": 9809, "hit": "participant_132", "trial": 43, "response_speaker": "human", "machine_groundtruth": "", "imageID": 132, "caption": "succeed", "counterbalance": 0, "groundtruth": "human", "phase": "TEST", "human_groundtruth": "human", "real_gender": "male", "response_gender": "female"}}, "Trial_56": {"workerID": "A1C6UZ7E8MUSRF", "workerData": {"country": "Singapore", "age": "21-25", "engagement": "1", "difficulty": "2", "mode": "sandbox", "gender": "female", "education": "bachelor", "condition": 0, "native": "yes"}, "trialData": {"rt": 8254, "hit": "participant_60", "trial": 46, "response_speaker": "human", "machine_groundtruth": "", "imageID": 60, "caption": "revelation", "counterbalance": 0, "groundtruth": "human", "phase": "TEST", "human_groundtruth": "human", "real_gender": "male", "response_gender": "female"}}, "Trial_57": {"workerID": "A1C6UZ7E8MUSRF", "workerData": {"country": "Singapore", "age": "21-25", "engagement": "1", "difficulty": "2", "mode": "sandbox", "gender": "female", "education": "bachelor", "condition": 0, "native": "yes"}, "trialData": {"rt": 5969, "hit": "participant_7", "trial": 47, "response_speaker": "machine", "machine_groundtruth": "", "imageID": 7, "caption": "credible", "counterbalance": 0, "groundtruth": "human", "phase": "TEST", "human_groundtruth": "human", "real_gender": "female", "response_gender": "female"}}, "Trial_58": {"workerID": "A1C6UZ7E8MUSRF", "workerData": {"country": "Singapore", "age": "21-25", "engagement": "1", "difficulty": "2", "mode": "sandbox", "gender": "female", "education": "bachelor", "condition": 0, "native": "yes"}, "trialData": {"rt": 6717, "hit": "participant_9", "trial": 48, "response_speaker": "human", "machine_groundtruth": "word2vec", "imageID": 9, "caption": "oriental", "counterbalance": 0, "groundtruth": "machine", "phase": "TEST", "human_groundtruth": "", "real_gender": "", "response_gender": "male"}}, "Trial_59": {"workerID": "A1C6UZ7E8MUSRF", "workerData": {"country": "Singapore", "age": "21-25", "engagement": "1", "difficulty": "2", "mode": "sandbox", "gender": "female", "education": "bachelor", "condition": 0, "native": "yes"}, "trialData": {"rt": 5231, "hit": "participant_46", "trial": 49, "response_speaker": "machine", "machine_groundtruth": "gpt3 (embedding)", "imageID": 46, "caption": "able", "counterbalance": 0, "groundtruth": "machine", "phase": "TEST", "human_groundtruth": "", "real_gender": "", "response_gender": "male"}}, "Trial_60": {"workerID": "A1C6UZ7E8MUSRF", "workerData": {"country": "Singapore", "age": "21-25", "engagement": "1", "difficulty": "2", "mode": "sandbox", "gender": "female", "education": "bachelor", "condition": 0, "native": "yes"}, "trialData": {"rt": 14583, "hit": "participant_18", "trial": 50, "response_speaker": "machine", "machine_groundtruth": "", "imageID": 18, "caption": "rural", "counterbalance": 0, "groundtruth": "human", "phase": "TEST", "human_groundtruth": "human", "real_gender": "male", "response_gender": "male"}}, "Trial_61": {"workerID": "A1C6UZ7E8MUSRF", "workerData": {"country": "Singapore", "age": "21-25", "engagement": "8", "difficulty": "7", "mode": "sandbox", "gender": "male", "education": "high school", "condition": 0, "native": "yes"}, "trialData": {"rt": 11429, "hit": "participant_131", "trial": 1, "response_speaker": "human", "machine_groundtruth": "", "imageID": 131, "caption": "bloodshed", "counterbalance": 0, "groundtruth": "human", "phase": "TEST", "human_groundtruth": "human", "real_gender": "male", "response_gender": "male"}}, "Trial_62": {"workerID": "A1C6UZ7E8MUSRF", "workerData": {"country": "Singapore", "age": "21-25", "engagement": "8", "difficulty": "7", "mode": "sandbox", "gender": "male", "education": "high school", "condition": 0, "native": "yes"}, "trialData": {"rt": 9709, "hit": "participant_53", "trial": 4, "response_speaker": "machine", "machine_groundtruth": "gpt3 (prompt curie)", "imageID": 53, "caption": "stanford", "counterbalance": 0, "groundtruth": "machine", "phase": "TEST", "human_groundtruth": "", "real_gender": "", "response_gender": "male"}}, "Trial_63": {"workerID": "A1C6UZ7E8MUSRF", "workerData": {"country": "Singapore", "age": "21-25", "engagement": "8", "difficulty": "7", "mode": "sandbox", "gender": "male", "education": "high school", "condition": 0, "native": "yes"}, "trialData": {"rt": 8891, "hit": "participant_137", "trial": 5, "response_speaker": "machine", "machine_groundtruth": "gpt3 (prompt curie)", "imageID": 137, "caption": "fred", "counterbalance": 0, "groundtruth": "machine", "phase": "TEST", "human_groundtruth": "", "real_gender": "", "response_gender": "male"}}, "Trial_64": {"workerID": "A1C6UZ7E8MUSRF", "workerData": {"country": "Singapore", "age": "21-25", "engagement": "8", "difficulty": "7", "mode": "sandbox", "gender": "male", "education": "high school", "condition": 0, "native": "yes"}, "trialData": {"rt": 10352, "hit": "participant_92", "trial": 10, "response_speaker": "machine", "machine_groundtruth": "word2vec", "imageID": 92, "caption": "constitute", "counterbalance": 0, "groundtruth": "machine", "phase": "TEST", "human_groundtruth": "", "real_gender": "", "response_gender": "female"}}, "Trial_65": {"workerID": "A1C6UZ7E8MUSRF", "workerData": {"country": "Singapore", "age": "21-25", "engagement": "8", "difficulty": "7", "mode": "sandbox", "gender": "male", "education": "high school", "condition": 0, "native": "yes"}, "trialData": {"rt": 6912, "hit": "participant_144", "trial": 11, "response_speaker": "human", "machine_groundtruth": "gpt3 (prompt davinvci)", "imageID": 144, "caption": "hatred", "counterbalance": 0, "groundtruth": "machine", "phase": "TEST", "human_groundtruth": "", "real_gender": "", "response_gender": "male"}}, "Trial_66": {"workerID": "A1C6UZ7E8MUSRF", "workerData": {"country": "Singapore", "age": "21-25", "engagement": "8", "difficulty": "7", "mode": "sandbox", "gender": "male", "education": "high school", "condition": 0, "native": "yes"}, "trialData": {"rt": 8072, "hit": "participant_114", "trial": 12, "response_speaker": "machine", "machine_groundtruth": "word2vec", "imageID": 114, "caption": "infrared", "counterbalance": 0, "groundtruth": "machine", "phase": "TEST", "human_groundtruth": "", "real_gender": "", "response_gender": "male"}}, "Trial_67": {"workerID": "A1C6UZ7E8MUSRF", "workerData": {"country": "Singapore", "age": "21-25", "engagement": "8", "difficulty": "7", "mode": "sandbox", "gender": "male", "education": "high school", "condition": 0, "native": "yes"}, "trialData": {"rt": 7266, "hit": "participant_77", "trial": 13, "response_speaker": "human", "machine_groundtruth": "", "imageID": 77, "caption": "discretion", "counterbalance": 0, "groundtruth": "human", "phase": "TEST", "human_groundtruth": "human", "real_gender": "female", "response_gender": "male"}}, "Trial_68": {"workerID": "A1C6UZ7E8MUSRF", "workerData": {"country": "Singapore", "age": "21-25", "engagement": "8", "difficulty": "7", "mode": "sandbox", "gender": "male", "education": "high school", "condition": 0, "native": "yes"}, "trialData": {"rt": 5704, "hit": "participant_129", "trial": 14, "response_speaker": "machine", "machine_groundtruth": "", "imageID": 129, "caption": "settle", "counterbalance": 0, "groundtruth": "human", "phase": "TEST", "human_groundtruth": "human", "real_gender": "female", "response_gender": "male"}}, "Trial_69": {"workerID": "A1C6UZ7E8MUSRF", "workerData": {"country": "Singapore", "age": "21-25", "engagement": "8", "difficulty": "7", "mode": "sandbox", "gender": "male", "education": "high school", "condition": 0, "native": "yes"}, "trialData": {"rt": 5367, "hit": "participant_52", "trial": 15, "response_speaker": "human", "machine_groundtruth": "gpt3 (prompt davinvci)", "imageID": 52, "caption": "negotiate", "counterbalance": 0, "groundtruth": "machine", "phase": "TEST", "human_groundtruth": "", "real_gender": "", "response_gender": "female"}}, "Trial_70": {"workerID": "A1C6UZ7E8MUSRF", "workerData": {"country": "Singapore", "age": "21-25", "engagement": "8", "difficulty": "7", "mode": "sandbox", "gender": "male", "education": "high school", "condition": 0, "native": "yes"}, "trialData": {"rt": 7094, "hit": "participant_5", "trial": 18, "response_speaker": "human", "machine_groundtruth": "", "imageID": 5, "caption": "nepal", "counterbalance": 0, "groundtruth": "human", "phase": "TEST", "human_groundtruth": "human", "real_gender": "male", "response_gender": "female"}}, "Trial_71": {"workerID": "A1C6UZ7E8MUSRF", "workerData": {"country": "Singapore", "age": "21-25", "engagement": "8", "difficulty": "7", "mode": "sandbox", "gender": "male", "education": "high school", "condition": 0, "native": "yes"}, "trialData": {"rt": 16840, "hit": "participant_58", "trial": 19, "response_speaker": "machine", "machine_groundtruth": "gpt3 (prompt curie)", "imageID": 58, "caption": "dame", "counterbalance": 0, "groundtruth": "machine", "phase": "TEST", "human_groundtruth": "", "real_gender": "", "response_gender": "male"}}, "Trial_72": {"workerID": "A1C6UZ7E8MUSRF", "workerData": {"country": "Singapore", "age": "21-25", "engagement": "8", "difficulty": "7", "mode": "sandbox", "gender": "male", "education": "high school", "condition": 0, "native": "yes"}, "trialData": {"rt": 7258, "hit": "participant_60", "trial": 20, "response_speaker": "machine", "machine_groundtruth": "", "imageID": 60, "caption": "revelation", "counterbalance": 0, "groundtruth": "human", "phase": "TEST", "human_groundtruth": "human", "real_gender": "male", "response_gender": "female"}}, "Trial_73": {"workerID": "A1C6UZ7E8MUSRF", "workerData": {"country": "Singapore", "age": "21-25", "engagement": "8", "difficulty": "7", "mode": "sandbox", "gender": "male", "education": "high school", "condition": 0, "native": "yes"}, "trialData": {"rt": 5992, "hit": "participant_64", "trial": 21, "response_speaker": "machine", "machine_groundtruth": "", "imageID": 64, "caption": "oppose", "counterbalance": 0, "groundtruth": "human", "phase": "TEST", "human_groundtruth": "human", "real_gender": "female", "response_gender": "female"}}, "Trial_74": {"workerID": "A1C6UZ7E8MUSRF", "workerData": {"country": "Singapore", "age": "21-25", "engagement": "8", "difficulty": "7", "mode": "sandbox", "gender": "male", "education": "high school", "condition": 0, "native": "yes"}, "trialData": {"rt": 7840, "hit": "participant_11", "trial": 25, "response_speaker": "human", "machine_groundtruth": "", "imageID": 11, "caption": "technician", "counterbalance": 0, "groundtruth": "human", "phase": "TEST", "human_groundtruth": "human", "real_gender": "male", "response_gender": "male"}}, "Trial_75": {"workerID": "A1C6UZ7E8MUSRF", "workerData": {"country": "Singapore", "age": "21-25", "engagement": "8", "difficulty": "7", "mode": "sandbox", "gender": "male", "education": "high school", "condition": 0, "native": "yes"}, "trialData": {"rt": 7600, "hit": "participant_121", "trial": 26, "response_speaker": "machine", "machine_groundtruth": "gpt2", "imageID": 121, "caption": "aforementioned", "counterbalance": 0, "groundtruth": "machine", "phase": "TEST", "human_groundtruth": "", "real_gender": "", "response_gender": "male"}}, "Trial_76": {"workerID": "A1C6UZ7E8MUSRF", "workerData": {"country": "Singapore", "age": "21-25", "engagement": "8", "difficulty": "7", "mode": "sandbox", "gender": "male", "education": "high school", "condition": 0, "native": "yes"}, "trialData": {"rt": 6402, "hit": "participant_37", "trial": 28, "response_speaker": "machine", "machine_groundtruth": "", "imageID": 37, "caption": "intangible", "counterbalance": 0, "groundtruth": "human", "phase": "TEST", "human_groundtruth": "human", "real_gender": "female", "response_gender": "male"}}, "Trial_77": {"workerID": "A1C6UZ7E8MUSRF", "workerData": {"country": "Singapore", "age": "21-25", "engagement": "8", "difficulty": "7", "mode": "sandbox", "gender": "male", "education": "high school", "condition": 0, "native": "yes"}, "trialData": {"rt": 7735, "hit": "participant_125", "trial": 29, "response_speaker": "machine", "machine_groundtruth": "", "imageID": 125, "caption": "establish", "counterbalance": 0, "groundtruth": "human", "phase": "TEST", "human_groundtruth": "human", "real_gender": "male", "response_gender": "male"}}, "Trial_78": {"workerID": "A1C6UZ7E8MUSRF", "workerData": {"country": "Singapore", "age": "21-25", "engagement": "8", "difficulty": "7", "mode": "sandbox", "gender": "male", "education": "high school", "condition": 0, "native": "yes"}, "trialData": {"rt": 5737, "hit": "participant_63", "trial": 30, "response_speaker": "human", "machine_groundtruth": "", "imageID": 63, "caption": "material", "counterbalance": 0, "groundtruth": "human", "phase": "TEST", "human_groundtruth": "human", "real_gender": "female", "response_gender": "female"}}, "Trial_79": {"workerID": "A1C6UZ7E8MUSRF", "workerData": {"country": "Singapore", "age": "21-25", "engagement": "8", "difficulty": "7", "mode": "sandbox", "gender": "male", "education": "high school", "condition": 0, "native": "yes"}, "trialData": {"rt": 7487, "hit": "participant_73", "trial": 32, "response_speaker": "human", "machine_groundtruth": "", "imageID": 73, "caption": "ammunition", "counterbalance": 0, "groundtruth": "human", "phase": "TEST", "human_groundtruth": "human", "real_gender": "female", "response_gender": "male"}}, "Trial_80": {"workerID": "A1C6UZ7E8MUSRF", "workerData": {"country": "Singapore", "age": "21-25", "engagement": "8", "difficulty": "7", "mode": "sandbox", "gender": "male", "education": "high school", "condition": 0, "native": "yes"}, "trialData": {"rt": 6011, "hit": "participant_66", "trial": 36, "response_speaker": "machine", "machine_groundtruth": "", "imageID": 66, "caption": "battlefield", "counterbalance": 0, "groundtruth": "human", "phase": "TEST", "human_groundtruth": "human", "real_gender": "female", "response_gender": "female"}}, "Trial_81": {"workerID": "A1C6UZ7E8MUSRF", "workerData": {"country": "Singapore", "age": "21-25", "engagement": "8", "difficulty": "7", "mode": "sandbox", "gender": "male", "education": "high school", "condition": 0, "native": "yes"}, "trialData": {"rt": 9157, "hit": "participant_149", "trial": 37, "response_speaker": "machine", "machine_groundtruth": "gpt2", "imageID": 149, "caption": "come", "counterbalance": 0, "groundtruth": "machine", "phase": "TEST", "human_groundtruth": "", "real_gender": "", "response_gender": "male"}}, "Trial_82": {"workerID": "A1C6UZ7E8MUSRF", "workerData": {"country": "Singapore", "age": "21-25", "engagement": "8", "difficulty": "7", "mode": "sandbox", "gender": "male", "education": "high school", "condition": 0, "native": "yes"}, "trialData": {"rt": 7296, "hit": "participant_99", "trial": 38, "response_speaker": "human", "machine_groundtruth": "", "imageID": 99, "caption": "prototype", "counterbalance": 0, "groundtruth": "human", "phase": "TEST", "human_groundtruth": "human", "real_gender": "male", "response_gender": "male"}}, "Trial_83": {"workerID": "A1C6UZ7E8MUSRF", "workerData": {"country": "Singapore", "age": "21-25", "engagement": "8", "difficulty": "7", "mode": "sandbox", "gender": "male", "education": "high school", "condition": 0, "native": "yes"}, "trialData": {"rt": 9159, "hit": "participant_138", "trial": 39, "response_speaker": "machine", "machine_groundtruth": "gpt3 (prompt curie)", "imageID": 138, "caption": "enclave", "counterbalance": 0, "groundtruth": "machine", "phase": "TEST", "human_groundtruth": "", "real_gender": "", "response_gender": "male"}}, "Trial_84": {"workerID": "A1C6UZ7E8MUSRF", "workerData": {"country": "Singapore", "age": "21-25", "engagement": "8", "difficulty": "7", "mode": "sandbox", "gender": "male", "education": "high school", "condition": 0, "native": "yes"}, "trialData": {"rt": 6336, "hit": "participant_28", "trial": 40, "response_speaker": "machine", "machine_groundtruth": "", "imageID": 28, "caption": "pascal", "counterbalance": 0, "groundtruth": "human", "phase": "TEST", "human_groundtruth": "human", "real_gender": "female", "response_gender": "male"}}, "Trial_85": {"workerID": "A1C6UZ7E8MUSRF", "workerData": {"country": "Singapore", "age": "21-25", "engagement": "8", "difficulty": "7", "mode": "sandbox", "gender": "male", "education": "high school", "condition": 0, "native": "yes"}, "trialData": {"rt": 4726, "hit": "participant_7", "trial": 41, "response_speaker": "human", "machine_groundtruth": "", "imageID": 7, "caption": "credible", "counterbalance": 0, "groundtruth": "human", "phase": "TEST", "human_groundtruth": "human", "real_gender": "female", "response_gender": "female"}}, "Trial_86": {"workerID": "A1C6UZ7E8MUSRF", "workerData": {"country": "Singapore", "age": "21-25", "engagement": "8", "difficulty": "7", "mode": "sandbox", "gender": "male", "education": "high school", "condition": 0, "native": "yes"}, "trialData": {"rt": 5208, "hit": "participant_21", "trial": 43, "response_speaker": "human", "machine_groundtruth": "word2vec", "imageID": 21, "caption": "presidential", "counterbalance": 0, "groundtruth": "machine", "phase": "TEST", "human_groundtruth": "", "real_gender": "", "response_gender": "male"}}, "Trial_87": {"workerID": "A1C6UZ7E8MUSRF", "workerData": {"country": "Singapore", "age": "21-25", "engagement": "8", "difficulty": "7", "mode": "sandbox", "gender": "male", "education": "high school", "condition": 0, "native": "yes"}, "trialData": {"rt": 4734, "hit": "participant_41", "trial": 44, "response_speaker": "human", "machine_groundtruth": "", "imageID": 41, "caption": "schematic", "counterbalance": 0, "groundtruth": "human", "phase": "TEST", "human_groundtruth": "human", "real_gender": "female", "response_gender": "male"}}, "Trial_88": {"workerID": "A1C6UZ7E8MUSRF", "workerData": {"country": "Singapore", "age": "21-25", "engagement": "8", "difficulty": "7", "mode": "sandbox", "gender": "male", "education": "high school", "condition": 0, "native": "yes"}, "trialData": {"rt": 11903, "hit": "participant_24", "trial": 46, "response_speaker": "machine", "machine_groundtruth": "word2vec", "imageID": 24, "caption": "ridiculous", "counterbalance": 0, "groundtruth": "machine", "phase": "TEST", "human_groundtruth": "", "real_gender": "", "response_gender": "male"}}, "Trial_89": {"workerID": "A1C6UZ7E8MUSRF", "workerData": {"country": "Singapore", "age": "21-25", "engagement": "8", "difficulty": "7", "mode": "sandbox", "gender": "male", "education": "high school", "condition": 0, "native": "yes"}, "trialData": {"rt": 9309, "hit": "participant_113", "trial": 49, "response_speaker": "machine", "machine_groundtruth": "word2vec", "imageID": 113, "caption": "reduce", "counterbalance": 0, "groundtruth": "machine", "phase": "TEST", "human_groundtruth": "", "real_gender": "", "response_gender": "female"}}, "Trial_90": {"workerID": "A1C6UZ7E8MUSRF", "workerData": {"country": "Singapore", "age": "21-25", "engagement": "5", "difficulty": "10", "mode": "sandbox", "gender": "female", "education": "high school", "condition": 0, "native": "yes"}, "trialData": {"rt": 19270, "hit": "participant_92", "trial": 2, "response_speaker": "human", "machine_groundtruth": "", "imageID": 92, "caption": "constitute", "counterbalance": 0, "groundtruth": "human", "phase": "TEST", "human_groundtruth": "human", "real_gender": "male", "response_gender": "male"}}, "Trial_91": {"workerID": "A1C6UZ7E8MUSRF", "workerData": {"country": "Singapore", "age": "21-25", "engagement": "5", "difficulty": "10", "mode": "sandbox", "gender": "female", "education": "high school", "condition": 0, "native": "yes"}, "trialData": {"rt": 14342, "hit": "participant_149", "trial": 3, "response_speaker": "machine", "machine_groundtruth": "", "imageID": 149, "caption": "come", "counterbalance": 0, "groundtruth": "human", "phase": "TEST", "human_groundtruth": "human", "real_gender": "female", "response_gender": "female"}}, "Trial_92": {"workerID": "A1C6UZ7E8MUSRF", "workerData": {"country": "Singapore", "age": "21-25", "engagement": "5", "difficulty": "10", "mode": "sandbox", "gender": "female", "education": "high school", "condition": 0, "native": "yes"}, "trialData": {"rt": 7184, "hit": "participant_90", "trial": 4, "response_speaker": "human", "machine_groundtruth": "", "imageID": 90, "caption": "maid", "counterbalance": 0, "groundtruth": "human", "phase": "TEST", "human_groundtruth": "human", "real_gender": "female", "response_gender": "male"}}, "Trial_93": {"workerID": "A1C6UZ7E8MUSRF", "workerData": {"country": "Singapore", "age": "21-25", "engagement": "5", "difficulty": "10", "mode": "sandbox", "gender": "female", "education": "high school", "condition": 0, "native": "yes"}, "trialData": {"rt": 5181, "hit": "participant_131", "trial": 6, "response_speaker": "machine", "machine_groundtruth": "gpt3 (embedding)", "imageID": 131, "caption": "bloodshed", "counterbalance": 0, "groundtruth": "machine", "phase": "TEST", "human_groundtruth": "", "real_gender": "", "response_gender": "male"}}, "Trial_94": {"workerID": "A1C6UZ7E8MUSRF", "workerData": {"country": "Singapore", "age": "21-25", "engagement": "5", "difficulty": "10", "mode": "sandbox", "gender": "female", "education": "high school", "condition": 0, "native": "yes"}, "trialData": {"rt": 7703, "hit": "participant_63", "trial": 7, "response_speaker": "human", "machine_groundtruth": "gpt2", "imageID": 63, "caption": "material", "counterbalance": 0, "groundtruth": "machine", "phase": "TEST", "human_groundtruth": "", "real_gender": "", "response_gender": "female"}}, "Trial_95": {"workerID": "A1C6UZ7E8MUSRF", "workerData": {"country": "Singapore", "age": "21-25", "engagement": "5", "difficulty": "10", "mode": "sandbox", "gender": "female", "education": "high school", "condition": 0, "native": "yes"}, "trialData": {"rt": 4901, "hit": "participant_121", "trial": 8, "response_speaker": "human", "machine_groundtruth": "gpt3 (embedding)", "imageID": 121, "caption": "aforementioned", "counterbalance": 0, "groundtruth": "machine", "phase": "TEST", "human_groundtruth": "", "real_gender": "", "response_gender": "male"}}, "Trial_96": {"workerID": "A1C6UZ7E8MUSRF", "workerData": {"country": "Singapore", "age": "21-25", "engagement": "5", "difficulty": "10", "mode": "sandbox", "gender": "female", "education": "high school", "condition": 0, "native": "yes"}, "trialData": {"rt": 8733, "hit": "participant_119", "trial": 9, "response_speaker": "human", "machine_groundtruth": "gpt2", "imageID": 119, "caption": "assume", "counterbalance": 0, "groundtruth": "machine", "phase": "TEST", "human_groundtruth": "", "real_gender": "", "response_gender": "male"}}, "Trial_97": {"workerID": "A1C6UZ7E8MUSRF", "workerData": {"country": "Singapore", "age": "21-25", "engagement": "5", "difficulty": "10", "mode": "sandbox", "gender": "female", "education": "high school", "condition": 0, "native": "yes"}, "trialData": {"rt": 4072, "hit": "participant_144", "trial": 10, "response_speaker": "machine", "machine_groundtruth": "word2vec", "imageID": 144, "caption": "hatred", "counterbalance": 0, "groundtruth": "machine", "phase": "TEST", "human_groundtruth": "", "real_gender": "", "response_gender": "female"}}, "Trial_98": {"workerID": "A1C6UZ7E8MUSRF", "workerData": {"country": "Singapore", "age": "21-25", "engagement": "5", "difficulty": "10", "mode": "sandbox", "gender": "female", "education": "high school", "condition": 0, "native": "yes"}, "trialData": {"rt": 4800, "hit": "participant_140", "trial": 11, "response_speaker": "human", "machine_groundtruth": "gpt3 (prompt davinvci)", "imageID": 140, "caption": "qualify", "counterbalance": 0, "groundtruth": "machine", "phase": "TEST", "human_groundtruth": "", "real_gender": "", "response_gender": "female"}}, "Trial_99": {"workerID": "A1C6UZ7E8MUSRF", "workerData": {"country": "Singapore", "age": "21-25", "engagement": "5", "difficulty": "10", "mode": "sandbox", "gender": "female", "education": "high school", "condition": 0, "native": "yes"}, "trialData": {"rt": 5263, "hit": "participant_141", "trial": 17, "response_speaker": "human", "machine_groundtruth": "", "imageID": 141, "caption": "kindred", "counterbalance": 0, "groundtruth": "human", "phase": "TEST", "human_groundtruth": "human", "real_gender": "male", "response_gender": "female"}}, "Trial_100": {"workerID": "A1C6UZ7E8MUSRF", "workerData": {"country": "Singapore", "age": "21-25", "engagement": "5", "difficulty": "10", "mode": "sandbox", "gender": "female", "education": "high school", "condition": 0, "native": "yes"}, "trialData": {"rt": 8152, "hit": "participant_29", "trial": 18, "response_speaker": "machine", "machine_groundtruth": "", "imageID": 29, "caption": "rebellious", "counterbalance": 0, "groundtruth": "human", "phase": "TEST", "human_groundtruth": "human", "real_gender": "female", "response_gender": "male"}}, "Trial_101": {"workerID": "A1C6UZ7E8MUSRF", "workerData": {"country": "Singapore", "age": "21-25", "engagement": "5", "difficulty": "10", "mode": "sandbox", "gender": "female", "education": "high school", "condition": 0, "native": "yes"}, "trialData": {"rt": 4406, "hit": "participant_106", "trial": 19, "response_speaker": "machine", "machine_groundtruth": "", "imageID": 106, "caption": "kindle", "counterbalance": 0, "groundtruth": "human", "phase": "TEST", "human_groundtruth": "human", "real_gender": "female", "response_gender": "male"}}, "Trial_102": {"workerID": "A1C6UZ7E8MUSRF", "workerData": {"country": "Singapore", "age": "21-25", "engagement": "5", "difficulty": "10", "mode": "sandbox", "gender": "female", "education": "high school", "condition": 0, "native": "yes"}, "trialData": {"rt": 3728, "hit": "participant_66", "trial": 21, "response_speaker": "human", "machine_groundtruth": "", "imageID": 66, "caption": "battlefield", "counterbalance": 0, "groundtruth": "human", "phase": "TEST", "human_groundtruth": "human", "real_gender": "male", "response_gender": "male"}}, "Trial_103": {"workerID": "A1C6UZ7E8MUSRF", "workerData": {"country": "Singapore", "age": "21-25", "engagement": "5", "difficulty": "10", "mode": "sandbox", "gender": "female", "education": "high school", "condition": 0, "native": "yes"}, "trialData": {"rt": 5822, "hit": "participant_111", "trial": 22, "response_speaker": "machine", "machine_groundtruth": "word2vec", "imageID": 111, "caption": "ping", "counterbalance": 0, "groundtruth": "machine", "phase": "TEST", "human_groundtruth": "", "real_gender": "", "response_gender": "male"}}, "Trial_104": {"workerID": "A1C6UZ7E8MUSRF", "workerData": {"country": "Singapore", "age": "21-25", "engagement": "5", "difficulty": "10", "mode": "sandbox", "gender": "female", "education": "high school", "condition": 0, "native": "yes"}, "trialData": {"rt": 5648, "hit": "participant_132", "trial": 23, "response_speaker": "human", "machine_groundtruth": "", "imageID": 132, "caption": "succeed", "counterbalance": 0, "groundtruth": "human", "phase": "TEST", "human_groundtruth": "human", "real_gender": "male", "response_gender": "female"}}, "Trial_105": {"workerID": "A1C6UZ7E8MUSRF", "workerData": {"country": "Singapore", "age": "21-25", "engagement": "5", "difficulty": "10", "mode": "sandbox", "gender": "female", "education": "high school", "condition": 0, "native": "yes"}, "trialData": {"rt": 2919, "hit": "participant_18", "trial": 24, "response_speaker": "human", "machine_groundtruth": "gpt3 (prompt curie)", "imageID": 18, "caption": "rural", "counterbalance": 0, "groundtruth": "machine", "phase": "TEST", "human_groundtruth": "", "real_gender": "", "response_gender": "female"}}, "Trial_106": {"workerID": "A1C6UZ7E8MUSRF", "workerData": {"country": "Singapore", "age": "21-25", "engagement": "5", "difficulty": "10", "mode": "sandbox", "gender": "female", "education": "high school", "condition": 0, "native": "yes"}, "trialData": {"rt": 4824, "hit": "participant_139", "trial": 28, "response_speaker": "machine", "machine_groundtruth": "word2vec", "imageID": 139, "caption": "deepen", "counterbalance": 0, "groundtruth": "machine", "phase": "TEST", "human_groundtruth": "", "real_gender": "", "response_gender": "male"}}, "Trial_107": {"workerID": "A1C6UZ7E8MUSRF", "workerData": {"country": "Singapore", "age": "21-25", "engagement": "5", "difficulty": "10", "mode": "sandbox", "gender": "female", "education": "high school", "condition": 0, "native": "yes"}, "trialData": {"rt": 3896, "hit": "participant_97", "trial": 29, "response_speaker": "human", "machine_groundtruth": "gpt2", "imageID": 97, "caption": "entertain", "counterbalance": 0, "groundtruth": "machine", "phase": "TEST", "human_groundtruth": "", "real_gender": "", "response_gender": "male"}}, "Trial_108": {"workerID": "A1C6UZ7E8MUSRF", "workerData": {"country": "Singapore", "age": "21-25", "engagement": "5", "difficulty": "10", "mode": "sandbox", "gender": "female", "education": "high school", "condition": 0, "native": "yes"}, "trialData": {"rt": 7573, "hit": "participant_28", "trial": 31, "response_speaker": "human", "machine_groundtruth": "", "imageID": 28, "caption": "pascal", "counterbalance": 0, "groundtruth": "human", "phase": "TEST", "human_groundtruth": "human", "real_gender": "female", "response_gender": "male"}}, "Trial_109": {"workerID": "A1C6UZ7E8MUSRF", "workerData": {"country": "Singapore", "age": "21-25", "engagement": "5", "difficulty": "10", "mode": "sandbox", "gender": "female", "education": "high school", "condition": 0, "native": "yes"}, "trialData": {"rt": 4960, "hit": "participant_21", "trial": 32, "response_speaker": "human", "machine_groundtruth": "", "imageID": 21, "caption": "presidential", "counterbalance": 0, "groundtruth": "human", "phase": "TEST", "human_groundtruth": "human", "real_gender": "female", "response_gender": "male"}}, "Trial_110": {"workerID": "A1C6UZ7E8MUSRF", "workerData": {"country": "Singapore", "age": "21-25", "engagement": "5", "difficulty": "10", "mode": "sandbox", "gender": "female", "education": "high school", "condition": 0, "native": "yes"}, "trialData": {"rt": 5848, "hit": "participant_11", "trial": 35, "response_speaker": "human", "machine_groundtruth": "gpt3 (prompt curie)", "imageID": 11, "caption": "technician", "counterbalance": 0, "groundtruth": "machine", "phase": "TEST", "human_groundtruth": "", "real_gender": "", "response_gender": "male"}}, "Trial_111": {"workerID": "A1C6UZ7E8MUSRF", "workerData": {"country": "Singapore", "age": "21-25", "engagement": "5", "difficulty": "10", "mode": "sandbox", "gender": "female", "education": "high school", "condition": 0, "native": "yes"}, "trialData": {"rt": 6015, "hit": "participant_31", "trial": 37, "response_speaker": "machine", "machine_groundtruth": "", "imageID": 31, "caption": "exponential", "counterbalance": 0, "groundtruth": "human", "phase": "TEST", "human_groundtruth": "human", "real_gender": "female", "response_gender": "male"}}, "Trial_112": {"workerID": "A1C6UZ7E8MUSRF", "workerData": {"country": "Singapore", "age": "21-25", "engagement": "5", "difficulty": "10", "mode": "sandbox", "gender": "female", "education": "high school", "condition": 0, "native": "yes"}, "trialData": {"rt": 6703, "hit": "participant_53", "trial": 40, "response_speaker": "human", "machine_groundtruth": "gpt3 (prompt davinvci)", "imageID": 53, "caption": "stanford", "counterbalance": 0, "groundtruth": "machine", "phase": "TEST", "human_groundtruth": "", "real_gender": "", "response_gender": "male"}}, "Trial_113": {"workerID": "A1C6UZ7E8MUSRF", "workerData": {"country": "Singapore", "age": "21-25", "engagement": "5", "difficulty": "10", "mode": "sandbox", "gender": "female", "education": "high school", "condition": 0, "native": "yes"}, "trialData": {"rt": 3864, "hit": "participant_113", "trial": 41, "response_speaker": "human", "machine_groundtruth": "", "imageID": 113, "caption": "reduce", "counterbalance": 0, "groundtruth": "human", "phase": "TEST", "human_groundtruth": "human", "real_gender": "male", "response_gender": "male"}}, "Trial_114": {"workerID": "A1C6UZ7E8MUSRF", "workerData": {"country": "Singapore", "age": "21-25", "engagement": "5", "difficulty": "10", "mode": "sandbox", "gender": "female", "education": "high school", "condition": 0, "native": "yes"}, "trialData": {"rt": 3141, "hit": "participant_22", "trial": 46, "response_speaker": "human", "machine_groundtruth": "gpt3 (embedding)", "imageID": 22, "caption": "attentive", "counterbalance": 0, "groundtruth": "machine", "phase": "TEST", "human_groundtruth": "", "real_gender": "", "response_gender": "male"}}, "Trial_115": {"workerID": "A1C6UZ7E8MUSRF", "workerData": {"country": "Singapore", "age": "21-25", "engagement": "5", "difficulty": "10", "mode": "sandbox", "gender": "female", "education": "high school", "condition": 0, "native": "yes"}, "trialData": {"rt": 5136, "hit": "participant_147", "trial": 48, "response_speaker": "machine", "machine_groundtruth": "gpt3 (embedding)", "imageID": 147, "caption": "make", "counterbalance": 0, "groundtruth": "machine", "phase": "TEST", "human_groundtruth": "", "real_gender": "", "response_gender": "male"}}, "Trial_116": {"workerID": "A1C6UZ7E8MUSRF", "workerData": {"country": "Singapore", "age": "21-25", "engagement": "5", "difficulty": "10", "mode": "sandbox", "gender": "female", "education": "high school", "condition": 0, "native": "yes"}, "trialData": {"rt": 5254, "hit": "participant_7", "trial": 49, "response_speaker": "machine", "machine_groundtruth": "", "imageID": 7, "caption": "credible", "counterbalance": 0, "groundtruth": "human", "phase": "TEST", "human_groundtruth": "human", "real_gender": "female", "response_gender": "female"}}, "Trial_117": {"workerID": "A30ECUY2NE1EIX", "workerData": {"country": "Singapore", "age": "26-30", "engagement": "7", "difficulty": "4", "mode": "sandbox", "gender": "female", "education": "bachelor", "condition": 0, "native": "yes"}, "trialData": {"rt": 9213, "hit": "participant_141", "trial": 3, "response_speaker": "machine", "machine_groundtruth": "", "imageID": 141, "caption": "kindred", "counterbalance": 0, "groundtruth": "human", "phase": "TEST", "human_groundtruth": "human", "real_gender": "male", "response_gender": "female"}}, "Trial_118": {"workerID": "A30ECUY2NE1EIX", "workerData": {"country": "Singapore", "age": "26-30", "engagement": "7", "difficulty": "4", "mode": "sandbox", "gender": "female", "education": "bachelor", "condition": 0, "native": "yes"}, "trialData": {"rt": 6166, "hit": "participant_62", "trial": 5, "response_speaker": "machine", "machine_groundtruth": "", "imageID": 62, "caption": "mainland", "counterbalance": 0, "groundtruth": "human", "phase": "TEST", "human_groundtruth": "human", "real_gender": "female", "response_gender": "male"}}, "Trial_119": {"workerID": "A30ECUY2NE1EIX", "workerData": {"country": "Singapore", "age": "26-30", "engagement": "7", "difficulty": "4", "mode": "sandbox", "gender": "female", "education": "bachelor", "condition": 0, "native": "yes"}, "trialData": {"rt": 8647, "hit": "participant_106", "trial": 6, "response_speaker": "machine", "machine_groundtruth": "gpt3 (prompt curie)", "imageID": 106, "caption": "kindle", "counterbalance": 0, "groundtruth": "machine", "phase": "TEST", "human_groundtruth": "", "real_gender": "", "response_gender": "male"}}, "Trial_120": {"workerID": "A30ECUY2NE1EIX", "workerData": {"country": "Singapore", "age": "26-30", "engagement": "7", "difficulty": "4", "mode": "sandbox", "gender": "female", "education": "bachelor", "condition": 0, "native": "yes"}, "trialData": {"rt": 5040, "hit": "participant_41", "trial": 7, "response_speaker": "machine", "machine_groundtruth": "word2vec", "imageID": 41, "caption": "schematic", "counterbalance": 0, "groundtruth": "machine", "phase": "TEST", "human_groundtruth": "", "real_gender": "", "response_gender": "male"}}, "Trial_121": {"workerID": "A30ECUY2NE1EIX", "workerData": {"country": "Singapore", "age": "26-30", "engagement": "7", "difficulty": "4", "mode": "sandbox", "gender": "female", "education": "bachelor", "condition": 0, "native": "yes"}, "trialData": {"rt": 5448, "hit": "participant_119", "trial": 8, "response_speaker": "human", "machine_groundtruth": "gpt3 (prompt davinvci)", "imageID": 119, "caption": "assume", "counterbalance": 0, "groundtruth": "machine", "phase": "TEST", "human_groundtruth": "", "real_gender": "", "response_gender": "female"}}, "Trial_122": {"workerID": "A30ECUY2NE1EIX", "workerData": {"country": "Singapore", "age": "26-30", "engagement": "7", "difficulty": "4", "mode": "sandbox", "gender": "female", "education": "bachelor", "condition": 0, "native": "yes"}, "trialData": {"rt": 8143, "hit": "participant_26", "trial": 10, "response_speaker": "human", "machine_groundtruth": "", "imageID": 26, "caption": "ordinary", "counterbalance": 0, "groundtruth": "human", "phase": "TEST", "human_groundtruth": "human", "real_gender": "female", "response_gender": "female"}}, "Trial_123": {"workerID": "A30ECUY2NE1EIX", "workerData": {"country": "Singapore", "age": "26-30", "engagement": "7", "difficulty": "4", "mode": "sandbox", "gender": "female", "education": "bachelor", "condition": 0, "native": "yes"}, "trialData": {"rt": 4360, "hit": "participant_79", "trial": 11, "response_speaker": "human", "machine_groundtruth": "gpt3 (prompt davinvci)", "imageID": 79, "caption": "blunt", "counterbalance": 0, "groundtruth": "machine", "phase": "TEST", "human_groundtruth": "", "real_gender": "", "response_gender": "male"}}, "Trial_124": {"workerID": "A30ECUY2NE1EIX", "workerData": {"country": "Singapore", "age": "26-30", "engagement": "7", "difficulty": "4", "mode": "sandbox", "gender": "female", "education": "bachelor", "condition": 0, "native": "yes"}, "trialData": {"rt": 8518, "hit": "participant_46", "trial": 12, "response_speaker": "human", "machine_groundtruth": "gpt3 (prompt davinvci)", "imageID": 46, "caption": "able", "counterbalance": 0, "groundtruth": "machine", "phase": "TEST", "human_groundtruth": "", "real_gender": "", "response_gender": "male"}}, "Trial_125": {"workerID": "A30ECUY2NE1EIX", "workerData": {"country": "Singapore", "age": "26-30", "engagement": "7", "difficulty": "4", "mode": "sandbox", "gender": "female", "education": "bachelor", "condition": 0, "native": "yes"}, "trialData": {"rt": 6799, "hit": "participant_28", "trial": 13, "response_speaker": "machine", "machine_groundtruth": "gpt3 (prompt curie)", "imageID": 28, "caption": "pascal", "counterbalance": 0, "groundtruth": "machine", "phase": "TEST", "human_groundtruth": "", "real_gender": "", "response_gender": "male"}}, "Trial_126": {"workerID": "A30ECUY2NE1EIX", "workerData": {"country": "Singapore", "age": "26-30", "engagement": "7", "difficulty": "4", "mode": "sandbox", "gender": "female", "education": "bachelor", "condition": 0, "native": "yes"}, "trialData": {"rt": 9271, "hit": "participant_39", "trial": 15, "response_speaker": "human", "machine_groundtruth": "", "imageID": 39, "caption": "revolutionary", "counterbalance": 0, "groundtruth": "human", "phase": "TEST", "human_groundtruth": "human", "real_gender": "male", "response_gender": "female"}}, "Trial_127": {"workerID": "A30ECUY2NE1EIX", "workerData": {"country": "Singapore", "age": "26-30", "engagement": "7", "difficulty": "4", "mode": "sandbox", "gender": "female", "education": "bachelor", "condition": 0, "native": "yes"}, "trialData": {"rt": 6991, "hit": "participant_27", "trial": 16, "response_speaker": "machine", "machine_groundtruth": "gpt2", "imageID": 27, "caption": "obnoxious", "counterbalance": 0, "groundtruth": "machine", "phase": "TEST", "human_groundtruth": "", "real_gender": "", "response_gender": "male"}}, "Trial_128": {"workerID": "A30ECUY2NE1EIX", "workerData": {"country": "Singapore", "age": "26-30", "engagement": "7", "difficulty": "4", "mode": "sandbox", "gender": "female", "education": "bachelor", "condition": 0, "native": "yes"}, "trialData": {"rt": 7985, "hit": "participant_112", "trial": 17, "response_speaker": "human", "machine_groundtruth": "gpt3 (embedding)", "imageID": 112, "caption": "develop", "counterbalance": 0, "groundtruth": "machine", "phase": "TEST", "human_groundtruth": "", "real_gender": "", "response_gender": "male"}}, "Trial_129": {"workerID": "A30ECUY2NE1EIX", "workerData": {"country": "Singapore", "age": "26-30", "engagement": "7", "difficulty": "4", "mode": "sandbox", "gender": "female", "education": "bachelor", "condition": 0, "native": "yes"}, "trialData": {"rt": 8214, "hit": "participant_7", "trial": 18, "response_speaker": "machine", "machine_groundtruth": "", "imageID": 7, "caption": "credible", "counterbalance": 0, "groundtruth": "human", "phase": "TEST", "human_groundtruth": "human", "real_gender": "female", "response_gender": "female"}}, "Trial_130": {"workerID": "A30ECUY2NE1EIX", "workerData": {"country": "Singapore", "age": "26-30", "engagement": "7", "difficulty": "4", "mode": "sandbox", "gender": "female", "education": "bachelor", "condition": 0, "native": "yes"}, "trialData": {"rt": 9574, "hit": "participant_97", "trial": 20, "response_speaker": "machine", "machine_groundtruth": "word2vec", "imageID": 97, "caption": "entertain", "counterbalance": 0, "groundtruth": "machine", "phase": "TEST", "human_groundtruth": "", "real_gender": "", "response_gender": "male"}}, "Trial_131": {"workerID": "A30ECUY2NE1EIX", "workerData": {"country": "Singapore", "age": "26-30", "engagement": "7", "difficulty": "4", "mode": "sandbox", "gender": "female", "education": "bachelor", "condition": 0, "native": "yes"}, "trialData": {"rt": 5415, "hit": "participant_91", "trial": 24, "response_speaker": "machine", "machine_groundtruth": "", "imageID": 91, "caption": "brighton", "counterbalance": 0, "groundtruth": "human", "phase": "TEST", "human_groundtruth": "human", "real_gender": "male", "response_gender": "male"}}, "Trial_132": {"workerID": "A30ECUY2NE1EIX", "workerData": {"country": "Singapore", "age": "26-30", "engagement": "7", "difficulty": "4", "mode": "sandbox", "gender": "female", "education": "bachelor", "condition": 0, "native": "yes"}, "trialData": {"rt": 4639, "hit": "participant_74", "trial": 25, "response_speaker": "machine", "machine_groundtruth": "", "imageID": 74, "caption": "nixon", "counterbalance": 0, "groundtruth": "human", "phase": "TEST", "human_groundtruth": "human", "real_gender": "female", "response_gender": "male"}}, "Trial_133": {"workerID": "A30ECUY2NE1EIX", "workerData": {"country": "Singapore", "age": "26-30", "engagement": "7", "difficulty": "4", "mode": "sandbox", "gender": "female", "education": "bachelor", "condition": 0, "native": "yes"}, "trialData": {"rt": 8976, "hit": "participant_64", "trial": 28, "response_speaker": "machine", "machine_groundtruth": "", "imageID": 64, "caption": "oppose", "counterbalance": 0, "groundtruth": "human", "phase": "TEST", "human_groundtruth": "human", "real_gender": "female", "response_gender": "male"}}, "Trial_134": {"workerID": "A30ECUY2NE1EIX", "workerData": {"country": "Singapore", "age": "26-30", "engagement": "7", "difficulty": "4", "mode": "sandbox", "gender": "female", "education": "bachelor", "condition": 0, "native": "yes"}, "trialData": {"rt": 4365, "hit": "participant_31", "trial": 29, "response_speaker": "human", "machine_groundtruth": "", "imageID": 31, "caption": "exponential", "counterbalance": 0, "groundtruth": "human", "phase": "TEST", "human_groundtruth": "human", "real_gender": "female", "response_gender": "male"}}, "Trial_135": {"workerID": "A30ECUY2NE1EIX", "workerData": {"country": "Singapore", "age": "26-30", "engagement": "7", "difficulty": "4", "mode": "sandbox", "gender": "female", "education": "bachelor", "condition": 0, "native": "yes"}, "trialData": {"rt": 9023, "hit": "participant_110", "trial": 30, "response_speaker": "machine", "machine_groundtruth": "", "imageID": 110, "caption": "improve", "counterbalance": 0, "groundtruth": "human", "phase": "TEST", "human_groundtruth": "human", "real_gender": "female", "response_gender": "male"}}, "Trial_136": {"workerID": "A30ECUY2NE1EIX", "workerData": {"country": "Singapore", "age": "26-30", "engagement": "7", "difficulty": "4", "mode": "sandbox", "gender": "female", "education": "bachelor", "condition": 0, "native": "yes"}, "trialData": {"rt": 4536, "hit": "participant_121", "trial": 31, "response_speaker": "machine", "machine_groundtruth": "", "imageID": 121, "caption": "aforementioned", "counterbalance": 0, "groundtruth": "human", "phase": "TEST", "human_groundtruth": "human", "real_gender": "female", "response_gender": "male"}}, "Trial_137": {"workerID": "A30ECUY2NE1EIX", "workerData": {"country": "Singapore", "age": "26-30", "engagement": "7", "difficulty": "4", "mode": "sandbox", "gender": "female", "education": "bachelor", "condition": 0, "native": "yes"}, "trialData": {"rt": 13319, "hit": "participant_137", "trial": 35, "response_speaker": "machine", "machine_groundtruth": "gpt3 (embedding)", "imageID": 137, "caption": "fred", "counterbalance": 0, "groundtruth": "machine", "phase": "TEST", "human_groundtruth": "", "real_gender": "", "response_gender": "male"}}, "Trial_138": {"workerID": "A30ECUY2NE1EIX", "workerData": {"country": "Singapore", "age": "26-30", "engagement": "7", "difficulty": "4", "mode": "sandbox", "gender": "female", "education": "bachelor", "condition": 0, "native": "yes"}, "trialData": {"rt": 4966, "hit": "participant_52", "trial": 40, "response_speaker": "human", "machine_groundtruth": "", "imageID": 52, "caption": "negotiate", "counterbalance": 0, "groundtruth": "human", "phase": "TEST", "human_groundtruth": "human", "real_gender": "male", "response_gender": "male"}}, "Trial_139": {"workerID": "A30ECUY2NE1EIX", "workerData": {"country": "Singapore", "age": "26-30", "engagement": "7", "difficulty": "4", "mode": "sandbox", "gender": "female", "education": "bachelor", "condition": 0, "native": "yes"}, "trialData": {"rt": 4304, "hit": "participant_48", "trial": 41, "response_speaker": "human", "machine_groundtruth": "gpt3 (embedding)", "imageID": 48, "caption": "military", "counterbalance": 0, "groundtruth": "machine", "phase": "TEST", "human_groundtruth": "", "real_gender": "", "response_gender": "male"}}, "Trial_140": {"workerID": "A30ECUY2NE1EIX", "workerData": {"country": "Singapore", "age": "26-30", "engagement": "7", "difficulty": "4", "mode": "sandbox", "gender": "female", "education": "bachelor", "condition": 0, "native": "yes"}, "trialData": {"rt": 7470, "hit": "participant_60", "trial": 42, "response_speaker": "human", "machine_groundtruth": "", "imageID": 60, "caption": "revelation", "counterbalance": 0, "groundtruth": "human", "phase": "TEST", "human_groundtruth": "human", "real_gender": "male", "response_gender": "male"}}, "Trial_141": {"workerID": "A30ECUY2NE1EIX", "workerData": {"country": "Singapore", "age": "26-30", "engagement": "7", "difficulty": "4", "mode": "sandbox", "gender": "female", "education": "bachelor", "condition": 0, "native": "yes"}, "trialData": {"rt": 12575, "hit": "participant_136", "trial": 44, "response_speaker": "machine", "machine_groundtruth": "", "imageID": 136, "caption": "sacred", "counterbalance": 0, "groundtruth": "human", "phase": "TEST", "human_groundtruth": "human", "real_gender": "female", "response_gender": "female"}}, "Trial_142": {"workerID": "A30ECUY2NE1EIX", "workerData": {"country": "Singapore", "age": "26-30", "engagement": "7", "difficulty": "4", "mode": "sandbox", "gender": "female", "education": "bachelor", "condition": 0, "native": "yes"}, "trialData": {"rt": 8743, "hit": "participant_135", "trial": 46, "response_speaker": "machine", "machine_groundtruth": "word2vec", "imageID": 135, "caption": "quantify", "counterbalance": 0, "groundtruth": "machine", "phase": "TEST", "human_groundtruth": "", "real_gender": "", "response_gender": "male"}}, "Trial_143": {"workerID": "A30ECUY2NE1EIX", "workerData": {"country": "Singapore", "age": "26-30", "engagement": "7", "difficulty": "4", "mode": "sandbox", "gender": "female", "education": "bachelor", "condition": 0, "native": "yes"}, "trialData": {"rt": 6968, "hit": "participant_149", "trial": 49, "response_speaker": "machine", "machine_groundtruth": "gpt3 (prompt davinvci)", "imageID": 149, "caption": "come", "counterbalance": 0, "groundtruth": "machine", "phase": "TEST", "human_groundtruth": "", "real_gender": "", "response_gender": "male"}}, "Trial_144": {"workerID": "A30ECUY2NE1EIX", "workerData": {"country": "India", "age": "21-25", "engagement": "8", "difficulty": "5", "mode": "sandbox", "gender": "male", "education": "high school", "condition": 0, "native": "no"}, "trialData": {"rt": 7750, "hit": "participant_18", "trial": 4, "response_speaker": "machine", "machine_groundtruth": "", "imageID": 18, "caption": "rural", "counterbalance": 0, "groundtruth": "human", "phase": "TEST", "human_groundtruth": "human", "real_gender": "female", "response_gender": "male"}}, "Trial_145": {"workerID": "A30ECUY2NE1EIX", "workerData": {"country": "India", "age": "21-25", "engagement": "8", "difficulty": "5", "mode": "sandbox", "gender": "male", "education": "high school", "condition": 0, "native": "no"}, "trialData": {"rt": 11873, "hit": "participant_62", "trial": 5, "response_speaker": "machine", "machine_groundtruth": "gpt3 (prompt davinvci)", "imageID": 62, "caption": "mainland", "counterbalance": 0, "groundtruth": "machine", "phase": "TEST", "human_groundtruth": "", "real_gender": "", "response_gender": "male"}}, "Trial_146": {"workerID": "A30ECUY2NE1EIX", "workerData": {"country": "India", "age": "21-25", "engagement": "8", "difficulty": "5", "mode": "sandbox", "gender": "male", "education": "high school", "condition": 0, "native": "no"}, "trialData": {"rt": 9292, "hit": "participant_136", "trial": 6, "response_speaker": "machine", "machine_groundtruth": "gpt2", "imageID": 136, "caption": "sacred", "counterbalance": 0, "groundtruth": "machine", "phase": "TEST", "human_groundtruth": "", "real_gender": "", "response_gender": "male"}}, "Trial_147": {"workerID": "A30ECUY2NE1EIX", "workerData": {"country": "India", "age": "21-25", "engagement": "8", "difficulty": "5", "mode": "sandbox", "gender": "male", "education": "high school", "condition": 0, "native": "no"}, "trialData": {"rt": 8215, "hit": "participant_101", "trial": 7, "response_speaker": "machine", "machine_groundtruth": "gpt3 (prompt davinvci)", "imageID": 101, "caption": "expose", "counterbalance": 0, "groundtruth": "machine", "phase": "TEST", "human_groundtruth": "", "real_gender": "", "response_gender": "female"}}, "Trial_148": {"workerID": "A30ECUY2NE1EIX", "workerData": {"country": "India", "age": "21-25", "engagement": "8", "difficulty": "5", "mode": "sandbox", "gender": "male", "education": "high school", "condition": 0, "native": "no"}, "trialData": {"rt": 7696, "hit": "participant_67", "trial": 9, "response_speaker": "machine", "machine_groundtruth": "", "imageID": 67, "caption": "dodge", "counterbalance": 0, "groundtruth": "human", "phase": "TEST", "human_groundtruth": "human", "real_gender": "female", "response_gender": "female"}}, "Trial_149": {"workerID": "A30ECUY2NE1EIX", "workerData": {"country": "India", "age": "21-25", "engagement": "8", "difficulty": "5", "mode": "sandbox", "gender": "male", "education": "high school", "condition": 0, "native": "no"}, "trialData": {"rt": 12286, "hit": "participant_37", "trial": 10, "response_speaker": "machine", "machine_groundtruth": "", "imageID": 37, "caption": "intangible", "counterbalance": 0, "groundtruth": "human", "phase": "TEST", "human_groundtruth": "human", "real_gender": "female", "response_gender": "male"}}, "Trial_150": {"workerID": "A30ECUY2NE1EIX", "workerData": {"country": "India", "age": "21-25", "engagement": "8", "difficulty": "5", "mode": "sandbox", "gender": "male", "education": "high school", "condition": 0, "native": "no"}, "trialData": {"rt": 5561, "hit": "participant_30", "trial": 15, "response_speaker": "machine", "machine_groundtruth": "", "imageID": 30, "caption": "ingenious", "counterbalance": 0, "groundtruth": "human", "phase": "TEST", "human_groundtruth": "human", "real_gender": "female", "response_gender": "male"}}, "Trial_151": {"workerID": "A30ECUY2NE1EIX", "workerData": {"country": "India", "age": "21-25", "engagement": "8", "difficulty": "5", "mode": "sandbox", "gender": "male", "education": "high school", "condition": 0, "native": "no"}, "trialData": {"rt": 9088, "hit": "participant_54", "trial": 17, "response_speaker": "machine", "machine_groundtruth": "", "imageID": 54, "caption": "absent", "counterbalance": 0, "groundtruth": "human", "phase": "TEST", "human_groundtruth": "human", "real_gender": "male", "response_gender": "male"}}, "Trial_152": {"workerID": "A30ECUY2NE1EIX", "workerData": {"country": "India", "age": "21-25", "engagement": "8", "difficulty": "5", "mode": "sandbox", "gender": "male", "education": "high school", "condition": 0, "native": "no"}, "trialData": {"rt": 12022, "hit": "participant_120", "trial": 18, "response_speaker": "machine", "machine_groundtruth": "", "imageID": 120, "caption": "identify", "counterbalance": 0, "groundtruth": "human", "phase": "TEST", "human_groundtruth": "human", "real_gender": "female", "response_gender": "male"}}, "Trial_153": {"workerID": "A30ECUY2NE1EIX", "workerData": {"country": "India", "age": "21-25", "engagement": "8", "difficulty": "5", "mode": "sandbox", "gender": "male", "education": "high school", "condition": 0, "native": "no"}, "trialData": {"rt": 12054, "hit": "participant_31", "trial": 19, "response_speaker": "human", "machine_groundtruth": "", "imageID": 31, "caption": "exponential", "counterbalance": 0, "groundtruth": "human", "phase": "TEST", "human_groundtruth": "human", "real_gender": "female", "response_gender": "male"}}, "Trial_154": {"workerID": "A30ECUY2NE1EIX", "workerData": {"country": "India", "age": "21-25", "engagement": "8", "difficulty": "5", "mode": "sandbox", "gender": "male", "education": "high school", "condition": 0, "native": "no"}, "trialData": {"rt": 6024, "hit": "participant_138", "trial": 21, "response_speaker": "machine", "machine_groundtruth": "", "imageID": 138, "caption": "enclave", "counterbalance": 0, "groundtruth": "human", "phase": "TEST", "human_groundtruth": "human", "real_gender": "male", "response_gender": "female"}}, "Trial_155": {"workerID": "A30ECUY2NE1EIX", "workerData": {"country": "India", "age": "21-25", "engagement": "8", "difficulty": "5", "mode": "sandbox", "gender": "male", "education": "high school", "condition": 0, "native": "no"}, "trialData": {"rt": 9582, "hit": "participant_90", "trial": 24, "response_speaker": "machine", "machine_groundtruth": "", "imageID": 90, "caption": "maid", "counterbalance": 0, "groundtruth": "human", "phase": "TEST", "human_groundtruth": "human", "real_gender": "female", "response_gender": "male"}}, "Trial_156": {"workerID": "A30ECUY2NE1EIX", "workerData": {"country": "India", "age": "21-25", "engagement": "8", "difficulty": "5", "mode": "sandbox", "gender": "male", "education": "high school", "condition": 0, "native": "no"}, "trialData": {"rt": 7362, "hit": "participant_5", "trial": 26, "response_speaker": "machine", "machine_groundtruth": "gpt3 (prompt curie)", "imageID": 5, "caption": "nepal", "counterbalance": 0, "groundtruth": "machine", "phase": "TEST", "human_groundtruth": "", "real_gender": "", "response_gender": "female"}}, "Trial_157": {"workerID": "A30ECUY2NE1EIX", "workerData": {"country": "India", "age": "21-25", "engagement": "8", "difficulty": "5", "mode": "sandbox", "gender": "male", "education": "high school", "condition": 0, "native": "no"}, "trialData": {"rt": 8296, "hit": "participant_21", "trial": 30, "response_speaker": "machine", "machine_groundtruth": "gpt3 (prompt curie)", "imageID": 21, "caption": "presidential", "counterbalance": 0, "groundtruth": "machine", "phase": "TEST", "human_groundtruth": "", "real_gender": "", "response_gender": "female"}}, "Trial_158": {"workerID": "A30ECUY2NE1EIX", "workerData": {"country": "India", "age": "21-25", "engagement": "8", "difficulty": "5", "mode": "sandbox", "gender": "male", "education": "high school", "condition": 0, "native": "no"}, "trialData": {"rt": 10000, "hit": "participant_23", "trial": 33, "response_speaker": "human", "machine_groundtruth": "gpt3 (embedding)", "imageID": 23, "caption": "impressive", "counterbalance": 0, "groundtruth": "machine", "phase": "TEST", "human_groundtruth": "", "real_gender": "", "response_gender": "male"}}, "Trial_159": {"workerID": "A30ECUY2NE1EIX", "workerData": {"country": "India", "age": "21-25", "engagement": "8", "difficulty": "5", "mode": "sandbox", "gender": "male", "education": "high school", "condition": 0, "native": "no"}, "trialData": {"rt": 7895, "hit": "participant_145", "trial": 34, "response_speaker": "machine", "machine_groundtruth": "", "imageID": 145, "caption": "have", "counterbalance": 0, "groundtruth": "human", "phase": "TEST", "human_groundtruth": "human", "real_gender": "male", "response_gender": "male"}}, "Trial_160": {"workerID": "A30ECUY2NE1EIX", "workerData": {"country": "India", "age": "21-25", "engagement": "8", "difficulty": "5", "mode": "sandbox", "gender": "male", "education": "high school", "condition": 0, "native": "no"}, "trialData": {"rt": 8872, "hit": "participant_73", "trial": 35, "response_speaker": "human", "machine_groundtruth": "gpt2", "imageID": 73, "caption": "ammunition", "counterbalance": 0, "groundtruth": "machine", "phase": "TEST", "human_groundtruth": "", "real_gender": "", "response_gender": "male"}}, "Trial_161": {"workerID": "A30ECUY2NE1EIX", "workerData": {"country": "India", "age": "21-25", "engagement": "8", "difficulty": "5", "mode": "sandbox", "gender": "male", "education": "high school", "condition": 0, "native": "no"}, "trialData": {"rt": 5886, "hit": "participant_123", "trial": 36, "response_speaker": "machine", "machine_groundtruth": "", "imageID": 123, "caption": "watershed", "counterbalance": 0, "groundtruth": "human", "phase": "TEST", "human_groundtruth": "human", "real_gender": "male", "response_gender": "male"}}, "Trial_162": {"workerID": "A30ECUY2NE1EIX", "workerData": {"country": "India", "age": "21-25", "engagement": "8", "difficulty": "5", "mode": "sandbox", "gender": "male", "education": "high school", "condition": 0, "native": "no"}, "trialData": {"rt": 8089, "hit": "participant_91", "trial": 37, "response_speaker": "machine", "machine_groundtruth": "", "imageID": 91, "caption": "brighton", "counterbalance": 0, "groundtruth": "human", "phase": "TEST", "human_groundtruth": "human", "real_gender": "male", "response_gender": "female"}}, "Trial_163": {"workerID": "A30ECUY2NE1EIX", "workerData": {"country": "India", "age": "21-25", "engagement": "8", "difficulty": "5", "mode": "sandbox", "gender": "male", "education": "high school", "condition": 0, "native": "no"}, "trialData": {"rt": 4142, "hit": "participant_63", "trial": 38, "response_speaker": "machine", "machine_groundtruth": "gpt3 (prompt curie)", "imageID": 63, "caption": "material", "counterbalance": 0, "groundtruth": "machine", "phase": "TEST", "human_groundtruth": "", "real_gender": "", "response_gender": "male"}}, "Trial_164": {"workerID": "A30ECUY2NE1EIX", "workerData": {"country": "India", "age": "21-25", "engagement": "8", "difficulty": "5", "mode": "sandbox", "gender": "male", "education": "high school", "condition": 0, "native": "no"}, "trialData": {"rt": 4056, "hit": "participant_79", "trial": 39, "response_speaker": "machine", "machine_groundtruth": "", "imageID": 79, "caption": "blunt", "counterbalance": 0, "groundtruth": "human", "phase": "TEST", "human_groundtruth": "human", "real_gender": "female", "response_gender": "male"}}, "Trial_165": {"workerID": "A30ECUY2NE1EIX", "workerData": {"country": "India", "age": "21-25", "engagement": "8", "difficulty": "5", "mode": "sandbox", "gender": "male", "education": "high school", "condition": 0, "native": "no"}, "trialData": {"rt": 6782, "hit": "participant_24", "trial": 45, "response_speaker": "machine", "machine_groundtruth": "gpt3 (prompt curie)", "imageID": 24, "caption": "ridiculous", "counterbalance": 0, "groundtruth": "machine", "phase": "TEST", "human_groundtruth": "", "real_gender": "", "response_gender": "male"}}, "Trial_166": {"workerID": "A30ECUY2NE1EIX", "workerData": {"country": "India", "age": "21-25", "engagement": "8", "difficulty": "5", "mode": "sandbox", "gender": "male", "education": "high school", "condition": 0, "native": "no"}, "trialData": {"rt": 5497, "hit": "participant_66", "trial": 48, "response_speaker": "machine", "machine_groundtruth": "", "imageID": 66, "caption": "battlefield", "counterbalance": 0, "groundtruth": "human", "phase": "TEST", "human_groundtruth": "human", "real_gender": "male", "response_gender": "male"}}, "Trial_167": {"workerID": "A30ECUY2NE1EIX", "workerData": {"country": "India", "age": "21-25", "engagement": "8", "difficulty": "5", "mode": "sandbox", "gender": "male", "education": "high school", "condition": 0, "native": "no"}, "trialData": {"rt": 6590, "hit": "participant_113", "trial": 49, "response_speaker": "machine", "machine_groundtruth": "", "imageID": 113, "caption": "reduce", "counterbalance": 0, "groundtruth": "human", "phase": "TEST", "human_groundtruth": "human", "real_gender": "male", "response_gender": "male"}}, "Trial_168": {"workerID": "A30ECUY2NE1EIX", "workerData": {"country": "India", "age": "21-25", "engagement": "8", "difficulty": "5", "mode": "sandbox", "gender": "male", "education": "high school", "condition": 0, "native": "no"}, "trialData": {"rt": 4760, "hit": "participant_41", "trial": 50, "response_speaker": "machine", "machine_groundtruth": "", "imageID": 41, "caption": "schematic", "counterbalance": 0, "groundtruth": "human", "phase": "TEST", "human_groundtruth": "human", "real_gender": "male", "response_gender": "male"}}, "Trial_169": {"workerID": "A1C6UZ7E8MUSRF", "workerData": {"country": "Singapore", "age": "21-25", "engagement": "1", "difficulty": "3", "mode": "sandbox", "gender": "male", "education": "high school", "condition": 0, "native": "yes"}, "trialData": {"rt": 14032, "hit": "participant_135", "trial": 1, "response_speaker": "machine", "machine_groundtruth": "", "imageID": 135, "caption": "quantify", "counterbalance": 0, "groundtruth": "human", "phase": "TEST", "human_groundtruth": "human", "real_gender": "female", "response_gender": "female"}}, "Trial_170": {"workerID": "A1C6UZ7E8MUSRF", "workerData": {"country": "Singapore", "age": "21-25", "engagement": "1", "difficulty": "3", "mode": "sandbox", "gender": "male", "education": "high school", "condition": 0, "native": "yes"}, "trialData": {"rt": 8134, "hit": "participant_62", "trial": 2, "response_speaker": "human", "machine_groundtruth": "gpt2", "imageID": 62, "caption": "mainland", "counterbalance": 0, "groundtruth": "machine", "phase": "TEST", "human_groundtruth": "", "real_gender": "", "response_gender": "male"}}, "Trial_171": {"workerID": "A1C6UZ7E8MUSRF", "workerData": {"country": "Singapore", "age": "21-25", "engagement": "1", "difficulty": "3", "mode": "sandbox", "gender": "male", "education": "high school", "condition": 0, "native": "yes"}, "trialData": {"rt": 5822, "hit": "participant_102", "trial": 3, "response_speaker": "human", "machine_groundtruth": "", "imageID": 102, "caption": "impose", "counterbalance": 0, "groundtruth": "human", "phase": "TEST", "human_groundtruth": "human", "real_gender": "female", "response_gender": "female"}}, "Trial_172": {"workerID": "A1C6UZ7E8MUSRF", "workerData": {"country": "Singapore", "age": "21-25", "engagement": "1", "difficulty": "3", "mode": "sandbox", "gender": "male", "education": "high school", "condition": 0, "native": "yes"}, "trialData": {"rt": 6510, "hit": "participant_0", "trial": 5, "response_speaker": "human", "machine_groundtruth": "", "imageID": 0, "caption": "memorable", "counterbalance": 0, "groundtruth": "human", "phase": "TEST", "human_groundtruth": "human", "real_gender": "female", "response_gender": "male"}}, "Trial_173": {"workerID": "A1C6UZ7E8MUSRF", "workerData": {"country": "Singapore", "age": "21-25", "engagement": "1", "difficulty": "3", "mode": "sandbox", "gender": "male", "education": "high school", "condition": 0, "native": "yes"}, "trialData": {"rt": 8840, "hit": "participant_139", "trial": 6, "response_speaker": "machine", "machine_groundtruth": "", "imageID": 139, "caption": "deepen", "counterbalance": 0, "groundtruth": "human", "phase": "TEST", "human_groundtruth": "human", "real_gender": "female", "response_gender": "male"}}, "Trial_174": {"workerID": "A1C6UZ7E8MUSRF", "workerData": {"country": "Singapore", "age": "21-25", "engagement": "1", "difficulty": "3", "mode": "sandbox", "gender": "male", "education": "high school", "condition": 0, "native": "yes"}, "trialData": {"rt": 8125, "hit": "participant_9", "trial": 11, "response_speaker": "human", "machine_groundtruth": "", "imageID": 9, "caption": "oriental", "counterbalance": 0, "groundtruth": "human", "phase": "TEST", "human_groundtruth": "human", "real_gender": "male", "response_gender": "female"}}, "Trial_175": {"workerID": "A1C6UZ7E8MUSRF", "workerData": {"country": "Singapore", "age": "21-25", "engagement": "1", "difficulty": "3", "mode": "sandbox", "gender": "male", "education": "high school", "condition": 0, "native": "yes"}, "trialData": {"rt": 6088, "hit": "participant_125", "trial": 12, "response_speaker": "human", "machine_groundtruth": "", "imageID": 125, "caption": "establish", "counterbalance": 0, "groundtruth": "human", "phase": "TEST", "human_groundtruth": "human", "real_gender": "male", "response_gender": "female"}}, "Trial_176": {"workerID": "A1C6UZ7E8MUSRF", "workerData": {"country": "Singapore", "age": "21-25", "engagement": "1", "difficulty": "3", "mode": "sandbox", "gender": "male", "education": "high school", "condition": 0, "native": "yes"}, "trialData": {"rt": 6558, "hit": "participant_123", "trial": 13, "response_speaker": "human", "machine_groundtruth": "gpt3 (prompt davinvci)", "imageID": 123, "caption": "watershed", "counterbalance": 0, "groundtruth": "machine", "phase": "TEST", "human_groundtruth": "", "real_gender": "", "response_gender": "male"}}, "Trial_177": {"workerID": "A1C6UZ7E8MUSRF", "workerData": {"country": "Singapore", "age": "21-25", "engagement": "1", "difficulty": "3", "mode": "sandbox", "gender": "male", "education": "high school", "condition": 0, "native": "yes"}, "trialData": {"rt": 3985, "hit": "participant_48", "trial": 16, "response_speaker": "human", "machine_groundtruth": "", "imageID": 48, "caption": "military", "counterbalance": 0, "groundtruth": "human", "phase": "TEST", "human_groundtruth": "human", "real_gender": "female", "response_gender": "male"}}, "Trial_178": {"workerID": "A1C6UZ7E8MUSRF", "workerData": {"country": "Singapore", "age": "21-25", "engagement": "1", "difficulty": "3", "mode": "sandbox", "gender": "male", "education": "high school", "condition": 0, "native": "yes"}, "trialData": {"rt": 4813, "hit": "participant_60", "trial": 17, "response_speaker": "human", "machine_groundtruth": "", "imageID": 60, "caption": "revelation", "counterbalance": 0, "groundtruth": "human", "phase": "TEST", "human_groundtruth": "human", "real_gender": "female", "response_gender": "female"}}, "Trial_179": {"workerID": "A1C6UZ7E8MUSRF", "workerData": {"country": "Singapore", "age": "21-25", "engagement": "1", "difficulty": "3", "mode": "sandbox", "gender": "male", "education": "high school", "condition": 0, "native": "yes"}, "trialData": {"rt": 5488, "hit": "participant_120", "trial": 18, "response_speaker": "machine", "machine_groundtruth": "", "imageID": 120, "caption": "identify", "counterbalance": 0, "groundtruth": "human", "phase": "TEST", "human_groundtruth": "human", "real_gender": "female", "response_gender": "male"}}, "Trial_180": {"workerID": "A1C6UZ7E8MUSRF", "workerData": {"country": "Singapore", "age": "21-25", "engagement": "1", "difficulty": "3", "mode": "sandbox", "gender": "male", "education": "high school", "condition": 0, "native": "yes"}, "trialData": {"rt": 5966, "hit": "participant_140", "trial": 23, "response_speaker": "human", "machine_groundtruth": "gpt3 (embedding)", "imageID": 140, "caption": "qualify", "counterbalance": 0, "groundtruth": "machine", "phase": "TEST", "human_groundtruth": "", "real_gender": "", "response_gender": "male"}}, "Trial_181": {"workerID": "A1C6UZ7E8MUSRF", "workerData": {"country": "Singapore", "age": "21-25", "engagement": "1", "difficulty": "3", "mode": "sandbox", "gender": "male", "education": "high school", "condition": 0, "native": "yes"}, "trialData": {"rt": 4894, "hit": "participant_114", "trial": 24, "response_speaker": "machine", "machine_groundtruth": "word2vec", "imageID": 114, "caption": "infrared", "counterbalance": 0, "groundtruth": "machine", "phase": "TEST", "human_groundtruth": "", "real_gender": "", "response_gender": "male"}}, "Trial_182": {"workerID": "A1C6UZ7E8MUSRF", "workerData": {"country": "Singapore", "age": "21-25", "engagement": "1", "difficulty": "3", "mode": "sandbox", "gender": "male", "education": "high school", "condition": 0, "native": "yes"}, "trialData": {"rt": 7022, "hit": "participant_137", "trial": 27, "response_speaker": "machine", "machine_groundtruth": "gpt3 (embedding)", "imageID": 137, "caption": "fred", "counterbalance": 0, "groundtruth": "machine", "phase": "TEST", "human_groundtruth": "", "real_gender": "", "response_gender": "male"}}, "Trial_183": {"workerID": "A1C6UZ7E8MUSRF", "workerData": {"country": "Singapore", "age": "21-25", "engagement": "1", "difficulty": "3", "mode": "sandbox", "gender": "male", "education": "high school", "condition": 0, "native": "yes"}, "trialData": {"rt": 3734, "hit": "participant_6", "trial": 34, "response_speaker": "human", "machine_groundtruth": "", "imageID": 6, "caption": "healthy", "counterbalance": 0, "groundtruth": "human", "phase": "TEST", "human_groundtruth": "human", "real_gender": "male", "response_gender": "male"}}, "Trial_184": {"workerID": "A1C6UZ7E8MUSRF", "workerData": {"country": "Singapore", "age": "21-25", "engagement": "1", "difficulty": "3", "mode": "sandbox", "gender": "male", "education": "high school", "condition": 0, "native": "yes"}, "trialData": {"rt": 4253, "hit": "participant_7", "trial": 35, "response_speaker": "human", "machine_groundtruth": "gpt3 (embedding)", "imageID": 7, "caption": "credible", "counterbalance": 0, "groundtruth": "machine", "phase": "TEST", "human_groundtruth": "", "real_gender": "", "response_gender": "male"}}, "Trial_185": {"workerID": "A1C6UZ7E8MUSRF", "workerData": {"country": "Singapore", "age": "21-25", "engagement": "1", "difficulty": "3", "mode": "sandbox", "gender": "male", "education": "high school", "condition": 0, "native": "yes"