{"mturk-free": {"Trial_1": {"workerID": "AA2C6B86V30SB", "workerData": {"country": "United States", "age": "31-35", "engagement": "3", "difficulty": "3", "mode": "live", "gender": "male", "education": "bachelor", "condition": 0, "native": "yes"}, "trialData": {"rt": 20661, "hit": "participant_54", "trial": 2, "response_speaker": "machine", "machine_groundtruth": "word2vec", "imageID": 54, "caption": "absent", "counterbalance": 0, "groundtruth": "machine", "phase": "TEST", "human_groundtruth": "", "real_gender": "", "response_gender": "male"}}, "Trial_2": {"workerID": "AA2C6B86V30SB", "workerData": {"country": "United States", "age": "31-35", "engagement": "3", "difficulty": "3", "mode": "live", "gender": "male", "education": "bachelor", "condition": 0, "native": "yes"}, "trialData": {"rt": 6471, "hit": "participant_34", "trial": 3, "response_speaker": "machine", "machine_groundtruth": "gpt3 (prompt curie)", "imageID": 34, "caption": "venerable", "counterbalance": 0, "groundtruth": "machine", "phase": "TEST", "human_groundtruth": "", "real_gender": "", "response_gender": "male"}}, "Trial_3": {"workerID": "AA2C6B86V30SB", "workerData": {"country": "United States", "age": "31-35", "engagement": "3", "difficulty": "3", "mode": "live", "gender": "male", "education": "bachelor", "condition": 0, "native": "yes"}, "trialData": {"rt": 5664, "hit": "participant_41", "trial": 4, "response_speaker": "machine", "machine_groundtruth": "word2vec", "imageID": 41, "caption": "schematic", "counterbalance": 0, "groundtruth": "machine", "phase": "TEST", "human_groundtruth": "", "real_gender": "", "response_gender": "male"}}, "Trial_4": {"workerID": "AA2C6B86V30SB", "workerData": {"country": "United States", "age": "31-35", "engagement": "3", "difficulty": "3", "mode": "live", "gender": "male", "education": "bachelor", "condition": 0, "native": "yes"}, "trialData": {"rt": 6054, "hit": "participant_73", "trial": 5, "response_speaker": "human", "machine_groundtruth": "gpt3 (prompt curie)", "imageID": 73, "caption": "ammunition", "counterbalance": 0, "groundtruth": "machine", "phase": "TEST", "human_groundtruth": "", "real_gender": "", "response_gender": "female"}}, "Trial_5": {"workerID": "AA2C6B86V30SB", "workerData": {"country": "United States", "age": "31-35", "engagement": "3", "difficulty": "3", "mode": "live", "gender": "male", "education": "bachelor", "condition": 0, "native": "yes"}, "trialData": {"rt": 6361, "hit": "participant_138", "trial": 7, "response_speaker": "machine", "machine_groundtruth": "", "imageID": 138, "caption": "enclave", "counterbalance": 0, "groundtruth": "human", "phase": "TEST", "human_groundtruth": "human", "real_gender": "female", "response_gender": "female"}}, "Trial_6": {"workerID": "AA2C6B86V30SB", "workerData": {"country": "United States", "age": "31-35", "engagement": "3", "difficulty": "3", "mode": "live", "gender": "male", "education": "bachelor", "condition": 0, "native": "yes"}, "trialData": {"rt": 7120, "hit": "participant_125", "trial": 9, "response_speaker": "human", "machine_groundtruth": "", "imageID": 125, "caption": "establish", "counterbalance": 0, "groundtruth": "human", "phase": "TEST", "human_groundtruth": "human", "real_gender": "female", "response_gender": "female"}}, "Trial_7": {"workerID": "AA2C6B86V30SB", "workerData": {"country": "United States", "age": "31-35", "engagement": "3", "difficulty": "3", "mode": "live", "gender": "male", "education": "bachelor", "condition": 0, "native": "yes"}, "trialData": {"rt": 8217, "hit": "participant_144", "trial": 10, "response_speaker": "machine", "machine_groundtruth": "", "imageID": 144, "caption": "hatred", "counterbalance": 0, "groundtruth": "human", "phase": "TEST", "human_groundtruth": "human", "real_gender": "male", "response_gender": "female"}}, "Trial_8": {"workerID": "AA2C6B86V30SB", "workerData": {"country": "United States", "age": "31-35", "engagement": "3", "difficulty": "3", "mode": "live", "gender": "male", "education": "bachelor", "condition": 0, "native": "yes"}, "trialData": {"rt": 5656, "hit": "participant_88", "trial": 12, "response_speaker": "machine", "machine_groundtruth": "gpt3 (embedding)", "imageID": 88, "caption": "curtain", "counterbalance": 0, "groundtruth": "machine", "phase": "TEST", "human_groundtruth": "", "real_gender": "", "response_gender": "female"}}, "Trial_9": {"workerID": "AA2C6B86V30SB", "workerData": {"country": "United States", "age": "31-35", "engagement": "3", "difficulty": "3", "mode": "live", "gender": "male", "education": "bachelor", "condition": 0, "native": "yes"}, "trialData": {"rt": 4438, "hit": "participant_0", "trial": 14, "response_speaker": "human", "machine_groundtruth": "gpt3 (prompt curie)", "imageID": 0, "caption": "memorable", "counterbalance": 0, "groundtruth": "machine", "phase": "TEST", "human_groundtruth": "", "real_gender": "", "response_gender": "male"}}, "Trial_10": {"workerID": "AA2C6B86V30SB", "workerData": {"country": "United States", "age": "31-35", "engagement": "3", "difficulty": "3", "mode": "live", "gender": "male", "education": "bachelor", "condition": 0, "native": "yes"}, "trialData": {"rt": 7098, "hit": "participant_24", "trial": 16, "response_speaker": "human", "machine_groundtruth": "", "imageID": 24, "caption": "ridiculous", "counterbalance": 0, "groundtruth": "human", "phase": "TEST", "human_groundtruth": "human", "real_gender": "female", "response_gender": "female"}}, "Trial_11": {"workerID": "AA2C6B86V30SB", "workerData": {"country": "United States", "age": "31-35", "engagement": "3", "difficulty": "3", "mode": "live", "gender": "male", "education": "bachelor", "condition": 0, "native": "yes"}, "trialData": {"rt": 6930, "hit": "participant_48", "trial": 19, "response_speaker": "human", "machine_groundtruth": "gpt3 (embedding)", "imageID": 48, "caption": "military", "counterbalance": 0, "groundtruth": "machine", "phase": "TEST", "human_groundtruth": "", "real_gender": "", "response_gender": "male"}}, "Trial_12": {"workerID": "AA2C6B86V30SB", "workerData": {"country": "United States", "age": "31-35", "engagement": "3", "difficulty": "3", "mode": "live", "gender": "male", "education": "bachelor", "condition": 0, "native": "yes"}, "trialData": {"rt": 5864, "hit": "participant_26", "trial": 20, "response_speaker": "human", "machine_groundtruth": "", "imageID": 26, "caption": "ordinary", "counterbalance": 0, "groundtruth": "human", "phase": "TEST", "human_groundtruth": "human", "real_gender": "female", "response_gender": "male"}}, "Trial_13": {"workerID": "AA2C6B86V30SB", "workerData": {"country": "United States", "age": "31-35", "engagement": "3", "difficulty": "3", "mode": "live", "gender": "male", "education": "bachelor", "condition": 0, "native": "yes"}, "trialData": {"rt": 5998, "hit": "participant_119", "trial": 21, "response_speaker": "human", "machine_groundtruth": "", "imageID": 119, "caption": "assume", "counterbalance": 0, "groundtruth": "human", "phase": "TEST", "human_groundtruth": "human", "real_gender": "male", "response_gender": "female"}}, "Trial_14": {"workerID": "AA2C6B86V30SB", "workerData": {"country": "United States", "age": "31-35", "engagement": "3", "difficulty": "3", "mode": "live", "gender": "male", "education": "bachelor", "condition": 0, "native": "yes"}, "trialData": {"rt": 5349, "hit": "participant_90", "trial": 22, "response_speaker": "human", "machine_groundtruth": "gpt3 (prompt davinvci)", "imageID": 90, "caption": "maid", "counterbalance": 0, "groundtruth": "machine", "phase": "TEST", "human_groundtruth": "", "real_gender": "", "response_gender": "female"}}, "Trial_15": {"workerID": "AA2C6B86V30SB", "workerData": {"country": "United States", "age": "31-35", "engagement": "3", "difficulty": "3", "mode": "live", "gender": "male", "education": "bachelor", "condition": 0, "native": "yes"}, "trialData": {"rt": 6007, "hit": "participant_131", "trial": 23, "response_speaker": "machine", "machine_groundtruth": "word2vec", "imageID": 131, "caption": "bloodshed", "counterbalance": 0, "groundtruth": "machine", "phase": "TEST", "human_groundtruth": "", "real_gender": "", "response_gender": "female"}}, "Trial_16": {"workerID": "AA2C6B86V30SB", "workerData": {"country": "United States", "age": "31-35", "engagement": "3", "difficulty": "3", "mode": "live", "gender": "male", "education": "bachelor", "condition": 0, "native": "yes"}, "trialData": {"rt": 6849, "hit": "participant_5", "trial": 24, "response_speaker": "machine", "machine_groundtruth": "", "imageID": 5, "caption": "nepal", "counterbalance": 0, "groundtruth": "human", "phase": "TEST", "human_groundtruth": "human", "real_gender": "male", "response_gender": "male"}}, "Trial_17": {"workerID": "AA2C6B86V30SB", "workerData": {"country": "United States", "age": "31-35", "engagement": "3", "difficulty": "3", "mode": "live", "gender": "male", "education": "bachelor", "condition": 0, "native": "yes"}, "trialData": {"rt": 4708, "hit": "participant_31", "trial": 27, "response_speaker": "machine", "machine_groundtruth": "", "imageID": 31, "caption": "exponential", "counterbalance": 0, "groundtruth": "human", "phase": "TEST", "human_groundtruth": "human", "real_gender": "female", "response_gender": "male"}}, "Trial_18": {"workerID": "AA2C6B86V30SB", "workerData": {"country": "United States", "age": "31-35", "engagement": "3", "difficulty": "3", "mode": "live", "gender": "male", "education": "bachelor", "condition": 0, "native": "yes"}, "trialData": {"rt": 4795, "hit": "participant_92", "trial": 30, "response_speaker": "human", "machine_groundtruth": "", "imageID": 92, "caption": "constitute", "counterbalance": 0, "groundtruth": "human", "phase": "TEST", "human_groundtruth": "human", "real_gender": "female", "response_gender": "male"}}, "Trial_19": {"workerID": "AA2C6B86V30SB", "workerData": {"country": "United States", "age": "31-35", "engagement": "3", "difficulty": "3", "mode": "live", "gender": "male", "education": "bachelor", "condition": 0, "native": "yes"}, "trialData": {"rt": 6223, "hit": "participant_60", "trial": 31, "response_speaker": "machine", "machine_groundtruth": "word2vec", "imageID": 60, "caption": "revelation", "counterbalance": 0, "groundtruth": "machine", "phase": "TEST", "human_groundtruth": "", "real_gender": "", "response_gender": "female"}}, "Trial_20": {"workerID": "AA2C6B86V30SB", "workerData": {"country": "United States", "age": "31-35", "engagement": "3", "difficulty": "3", "mode": "live", "gender": "male", "education": "bachelor", "condition": 0, "native": "yes"}, "trialData": {"rt": 7521, "hit": "participant_79", "trial": 33, "response_speaker": "machine", "machine_groundtruth": "", "imageID": 79, "caption": "blunt", "counterbalance": 0, "groundtruth": "human", "phase": "TEST", "human_groundtruth": "human", "real_gender": "male", "response_gender": "female"}}, "Trial_21": {"workerID": "AA2C6B86V30SB", "workerData": {"country": "United States", "age": "31-35", "engagement": "3", "difficulty": "3", "mode": "live", "gender": "male", "education": "bachelor", "condition": 0, "native": "yes"}, "trialData": {"rt": 180120, "hit": "participant_23", "trial": 35, "response_speaker": "human", "machine_groundtruth": "word2vec", "imageID": 23, "caption": "impressive", "counterbalance": 0, "groundtruth": "machine", "phase": "TEST", "human_groundtruth": "", "real_gender": "", "response_gender": "male"}}, "Trial_22": {"workerID": "AA2C6B86V30SB", "workerData": {"country": "United States", "age": "31-35", "engagement": "3", "difficulty": "3", "mode": "live", "gender": "male", "education": "bachelor", "condition": 0, "native": "yes"}, "trialData": {"rt": 6232, "hit": "participant_114", "trial": 38, "response_speaker": "human", "machine_groundtruth": "gpt3 (embedding)", "imageID": 114, "caption": "infrared", "counterbalance": 0, "groundtruth": "machine", "phase": "TEST", "human_groundtruth": "", "real_gender": "", "response_gender": "female"}}, "Trial_23": {"workerID": "AA2C6B86V30SB", "workerData": {"country": "United States", "age": "31-35", "engagement": "3", "difficulty": "3", "mode": "live", "gender": "male", "education": "bachelor", "condition": 0, "native": "yes"}, "trialData": {"rt": 5535, "hit": "participant_104", "trial": 39, "response_speaker": "human", "machine_groundtruth": "", "imageID": 104, "caption": "slow", "counterbalance": 0, "groundtruth": "human", "phase": "TEST", "human_groundtruth": "human", "real_gender": "female", "response_gender": "male"}}, "Trial_24": {"workerID": "AA2C6B86V30SB", "workerData": {"country": "United States", "age": "31-35", "engagement": "3", "difficulty": "3", "mode": "live", "gender": "male", "education": "bachelor", "condition": 0, "native": "yes"}, "trialData": {"rt": 5584, "hit": "participant_37", "trial": 40, "response_speaker": "human", "machine_groundtruth": "", "imageID": 37, "caption": "intangible", "counterbalance": 0, "groundtruth": "human", "phase": "TEST", "human_groundtruth": "human", "real_gender": "male", "response_gender": "female"}}, "Trial_25": {"workerID": "AA2C6B86V30SB", "workerData": {"country": "United States", "age": "31-35", "engagement": "3", "difficulty": "3", "mode": "live", "gender": "male", "education": "bachelor", "condition": 0, "native": "yes"}, "trialData": {"rt": 5696, "hit": "participant_22", "trial": 41, "response_speaker": "human", "machine_groundtruth": "word2vec", "imageID": 22, "caption": "attentive", "counterbalance": 0, "groundtruth": "machine", "phase": "TEST", "human_groundtruth": "", "real_gender": "", "response_gender": "male"}}, "Trial_26": {"workerID": "AA2C6B86V30SB", "workerData": {"country": "United States", "age": "31-35", "engagement": "3", "difficulty": "3", "mode": "live", "gender": "male", "education": "bachelor", "condition": 0, "native": "yes"}, "trialData": {"rt": 5125, "hit": "participant_123", "trial": 44, "response_speaker": "human", "machine_groundtruth": "", "imageID": 123, "caption": "watershed", "counterbalance": 0, "groundtruth": "human", "phase": "TEST", "human_groundtruth": "human", "real_gender": "male", "response_gender": "male"}}, "Trial_27": {"workerID": "AA2C6B86V30SB", "workerData": {"country": "United States", "age": "31-35", "engagement": "3", "difficulty": "3", "mode": "live", "gender": "male", "education": "bachelor", "condition": 0, "native": "yes"}, "trialData": {"rt": 9941, "hit": "participant_136", "trial": 47, "response_speaker": "machine", "machine_groundtruth": "", "imageID": 136, "caption": "sacred", "counterbalance": 0, "groundtruth": "human", "phase": "TEST", "human_groundtruth": "human", "real_gender": "male", "response_gender": "male"}}, "Trial_28": {"workerID": "A19ZWBQT8A3LIR", "workerData": {"country": "United States", "age": "31-35", "engagement": "5", "difficulty": "5", "mode": "live", "gender": "male", "education": "bachelor", "condition": 0, "native": "yes"}, "trialData": {"rt": 5549, "hit": "participant_119", "trial": 1, "response_speaker": "human", "machine_groundtruth": "", "imageID": 119, "caption": "assume", "counterbalance": 0, "groundtruth": "human", "phase": "TEST", "human_groundtruth": "human", "real_gender": "male", "response_gender": "female"}}, "Trial_29": {"workerID": "A19ZWBQT8A3LIR", "workerData": {"country": "United States", "age": "31-35", "engagement": "5", "difficulty": "5", "mode": "live", "gender": "male", "education": "bachelor", "condition": 0, "native": "yes"}, "trialData": {"rt": 19505, "hit": "participant_37", "trial": 3, "response_speaker": "machine", "machine_groundtruth": "", "imageID": 37, "caption": "intangible", "counterbalance": 0, "groundtruth": "human", "phase": "TEST", "human_groundtruth": "human", "real_gender": "male", "response_gender": "male"}}, "Trial_30": {"workerID": "A19ZWBQT8A3LIR", "workerData": {"country": "United States", "age": "31-35", "engagement": "5", "difficulty": "5", "mode": "live", "gender": "male", "education": "bachelor", "condition": 0, "native": "yes"}, "trialData": {"rt": 6446, "hit": "participant_91", "trial": 4, "response_speaker": "machine", "machine_groundtruth": "", "imageID": 91, "caption": "brighton", "counterbalance": 0, "groundtruth": "human", "phase": "TEST", "human_groundtruth": "human", "real_gender": "male", "response_gender": "male"}}, "Trial_31": {"workerID": "A19ZWBQT8A3LIR", "workerData": {"country": "United States", "age": "31-35", "engagement": "5", "difficulty": "5", "mode": "live", "gender": "male", "education": "bachelor", "condition": 0, "native": "yes"}, "trialData": {"rt": 11239, "hit": "participant_26", "trial": 10, "response_speaker": "human", "machine_groundtruth": "", "imageID": 26, "caption": "ordinary", "counterbalance": 0, "groundtruth": "human", "phase": "TEST", "human_groundtruth": "human", "real_gender": "male", "response_gender": "female"}}, "Trial_32": {"workerID": "A19ZWBQT8A3LIR", "workerData": {"country": "United States", "age": "31-35", "engagement": "5", "difficulty": "5", "mode": "live", "gender": "male", "education": "bachelor", "condition": 0, "native": "yes"}, "trialData": {"rt": 6782, "hit": "participant_9", "trial": 11, "response_speaker": "machine", "machine_groundtruth": "gpt3 (prompt davinvci)", "imageID": 9, "caption": "oriental", "counterbalance": 0, "groundtruth": "machine", "phase": "TEST", "human_groundtruth": "", "real_gender": "", "response_gender": "female"}}, "Trial_33": {"workerID": "A19ZWBQT8A3LIR", "workerData": {"country": "United States", "age": "31-35", "engagement": "5", "difficulty": "5", "mode": "live", "gender": "male", "education": "bachelor", "condition": 0, "native": "yes"}, "trialData": {"rt": 6646, "hit": "participant_120", "trial": 12, "response_speaker": "human", "machine_groundtruth": "gpt3 (embedding)", "imageID": 120, "caption": "identify", "counterbalance": 0, "groundtruth": "machine", "phase": "TEST", "human_groundtruth": "", "real_gender": "", "response_gender": "male"}}, "Trial_34": {"workerID": "A19ZWBQT8A3LIR", "workerData": {"country": "United States", "age": "31-35", "engagement": "5", "difficulty": "5", "mode": "live", "gender": "male", "education": "bachelor", "condition": 0, "native": "yes"}, "trialData": {"rt": 4871, "hit": "participant_95", "trial": 13, "response_speaker": "human", "machine_groundtruth": "", "imageID": 95, "caption": "wendy", "counterbalance": 0, "groundtruth": "human", "phase": "TEST", "human_groundtruth": "human", "real_gender": "male", "response_gender": "male"}}, "Trial_35": {"workerID": "A19ZWBQT8A3LIR", "workerData": {"country": "United States", "age": "31-35", "engagement": "5", "difficulty": "5", "mode": "live", "gender": "male", "education": "bachelor", "condition": 0, "native": "yes"}, "trialData": {"rt": 4115, "hit": "participant_69", "trial": 14, "response_speaker": "human", "machine_groundtruth": "gpt3 (embedding)", "imageID": 69, "caption": "cancer", "counterbalance": 0, "groundtruth": "machine", "phase": "TEST", "human_groundtruth": "", "real_gender": "", "response_gender": "female"}}, "Trial_36": {"workerID": "A19ZWBQT8A3LIR", "workerData": {"country": "United States", "age": "31-35", "engagement": "5", "difficulty": "5", "mode": "live", "gender": "male", "education": "bachelor", "condition": 0, "native": "yes"}, "trialData": {"rt": 6680, "hit": "participant_106", "trial": 17, "response_speaker": "human", "machine_groundtruth": "gpt2", "imageID": 106, "caption": "kindle", "counterbalance": 0, "groundtruth": "machine", "phase": "TEST", "human_groundtruth": "", "real_gender": "", "response_gender": "female"}}, "Trial_37": {"workerID": "A19ZWBQT8A3LIR", "workerData": {"country": "United States", "age": "31-35", "engagement": "5", "difficulty": "5", "mode": "live", "gender": "male", "education": "bachelor", "condition": 0, "native": "yes"}, "trialData": {"rt": 4083, "hit": "participant_141", "trial": 20, "response_speaker": "human", "machine_groundtruth": "", "imageID": 141, "caption": "kindred", "counterbalance": 0, "groundtruth": "human", "phase": "TEST", "human_groundtruth": "human", "real_gender": "male", "response_gender": "male"}}, "Trial_38": {"workerID": "A19ZWBQT8A3LIR", "workerData": {"country": "United States", "age": "31-35", "engagement": "5", "difficulty": "5", "mode": "live", "gender": "male", "education": "bachelor", "condition": 0, "native": "yes"}, "trialData": {"rt": 5050, "hit": "participant_104", "trial": 21, "response_speaker": "human", "machine_groundtruth": "", "imageID": 104, "caption": "slow", "counterbalance": 0, "groundtruth": "human", "phase": "TEST", "human_groundtruth": "human", "real_gender": "female", "response_gender": "male"}}, "Trial_39": {"workerID": "A19ZWBQT8A3LIR", "workerData": {"country": "United States", "age": "31-35", "engagement": "5", "difficulty": "5", "mode": "live", "gender": "male", "education": "bachelor", "condition": 0, "native": "yes"}, "trialData": {"rt": 4387, "hit": "participant_60", "trial": 22, "response_speaker": "human", "machine_groundtruth": "", "imageID": 60, "caption": "revelation", "counterbalance": 0, "groundtruth": "human", "phase": "TEST", "human_groundtruth": "human", "real_gender": "male", "response_gender": "female"}}, "Trial_40": {"workerID": "A19ZWBQT8A3LIR", "workerData": {"country": "United States", "age": "31-35", "engagement": "5", "difficulty": "5", "mode": "live", "gender": "male", "education": "bachelor", "condition": 0, "native": "yes"}, "trialData": {"rt": 8010, "hit": "participant_30", "trial": 23, "response_speaker": "human", "machine_groundtruth": "gpt3 (prompt davinvci)", "imageID": 30, "caption": "ingenious", "counterbalance": 0, "groundtruth": "machine", "phase": "TEST", "human_groundtruth": "", "real_gender": "", "response_gender": "female"}}, "Trial_41": {"workerID": "A19ZWBQT8A3LIR", "workerData": {"country": "United States", "age": "31-35", "engagement": "5", "difficulty": "5", "mode": "live", "gender": "male", "education": "bachelor", "condition": 0, "native": "yes"}, "trialData": {"rt": 3644, "hit": "participant_0", "trial": 24, "response_speaker": "human", "machine_groundtruth": "", "imageID": 0, "caption": "memorable", "counterbalance": 0, "groundtruth": "human", "phase": "TEST", "human_groundtruth": "human", "real_gender": "female", "response_gender": "female"}}, "Trial_42": {"workerID": "A19ZWBQT8A3LIR", "workerData": {"country": "United States", "age": "31-35", "engagement": "5", "difficulty": "5", "mode": "live", "gender": "male", "education": "bachelor", "condition": 0, "native": "yes"}, "trialData": {"rt": 4668, "hit": "participant_92", "trial": 28, "response_speaker": "machine", "machine_groundtruth": "", "imageID": 92, "caption": "constitute", "counterbalance": 0, "groundtruth": "human", "phase": "TEST", "human_groundtruth": "human", "real_gender": "female", "response_gender": "female"}}, "Trial_43": {"workerID": "A19ZWBQT8A3LIR", "workerData": {"country": "United States", "age": "31-35", "engagement": "5", "difficulty": "5", "mode": "live", "gender": "male", "education": "bachelor", "condition": 0, "native": "yes"}, "trialData": {"rt": 31757, "hit": "participant_144", "trial": 29, "response_speaker": "human", "machine_groundtruth": "", "imageID": 144, "caption": "hatred", "counterbalance": 0, "groundtruth": "human", "phase": "TEST", "human_groundtruth": "human", "real_gender": "male", "response_gender": "male"}}, "Trial_44": {"workerID": "A19ZWBQT8A3LIR", "workerData": {"country": "United States", "age": "31-35", "engagement": "5", "difficulty": "5", "mode": "live", "gender": "male", "education": "bachelor", "condition": 0, "native": "yes"}, "trialData": {"rt": 4572, "hit": "participant_46", "trial": 35, "response_speaker": "human", "machine_groundtruth": "", "imageID": 46, "caption": "able", "counterbalance": 0, "groundtruth": "human", "phase": "TEST", "human_groundtruth": "human", "real_gender": "male", "response_gender": "male"}}, "Trial_45": {"workerID": "A19ZWBQT8A3LIR", "workerData": {"country": "United States", "age": "31-35", "engagement": "5", "difficulty": "5", "mode": "live", "gender": "male", "education": "bachelor", "condition": 0, "native": "yes"}, "trialData": {"rt": 5757, "hit": "participant_38", "trial": 39, "response_speaker": "machine", "machine_groundtruth": "", "imageID": 38, "caption": "mammalian", "counterbalance": 0, "groundtruth": "human", "phase": "TEST", "human_groundtruth": "human", "real_gender": "male", "response_gender": "male"}}, "Trial_46": {"workerID": "A19ZWBQT8A3LIR", "workerData": {"country": "United States", "age": "31-35", "engagement": "5", "difficulty": "5", "mode": "live", "gender": "male", "education": "bachelor", "condition": 0, "native": "yes"}, "trialData": {"rt": 3757, "hit": "participant_129", "trial": 42, "response_speaker": "human", "machine_groundtruth": "gpt3 (prompt davinvci)", "imageID": 129, "caption": "settle", "counterbalance": 0, "groundtruth": "machine", "phase": "TEST", "human_groundtruth": "", "real_gender": "", "response_gender": "male"}}, "Trial_47": {"workerID": "A19ZWBQT8A3LIR", "workerData": {"country": "United States", "age": "31-35", "engagement": "5", "difficulty": "5", "mode": "live", "gender": "male", "education": "bachelor", "condition": 0, "native": "yes"}, "trialData": {"rt": 4149, "hit": "participant_111", "trial": 44, "response_speaker": "machine", "machine_groundtruth": "", "imageID": 111, "caption": "ping", "counterbalance": 0, "groundtruth": "human", "phase": "TEST", "human_groundtruth": "human", "real_gender": "male", "response_gender": "male"}}, "Trial_48": {"workerID": "A19ZWBQT8A3LIR", "workerData": {"country": "United States", "age": "31-35", "engagement": "5", "difficulty": "5", "mode": "live", "gender": "male", "education": "bachelor", "condition": 0, "native": "yes"}, "trialData": {"rt": 5409, "hit": "participant_88", "trial": 45, "response_speaker": "machine", "machine_groundtruth": "gpt3 (embedding)", "imageID": 88, "caption": "curtain", "counterbalance": 0, "groundtruth": "machine", "phase": "TEST", "human_groundtruth": "", "real_gender": "", "response_gender": "female"}}, "Trial_49": {"workerID": "A19ZWBQT8A3LIR", "workerData": {"country": "United States", "age": "31-35", "engagement": "5", "difficulty": "5", "mode": "live", "gender": "male", "education": "bachelor", "condition": 0, "native": "yes"}, "trialData": {"rt": 3802, "hit": "participant_52", "trial": 46, "response_speaker": "human", "machine_groundtruth": "gpt3 (prompt curie)", "imageID": 52, "caption": "negotiate", "counterbalance": 0, "groundtruth": "machine", "phase": "TEST", "human_groundtruth": "", "real_gender": "", "response_gender": "male"}}, "Trial_50": {"workerID": "A19ZWBQT8A3LIR", "workerData": {"country": "United States", "age": "31-35", "engagement": "5", "difficulty": "5", "mode": "live", "gender": "male", "education": "bachelor", "condition": 0, "native": "yes"}, "trialData": {"rt": 5885, "hit": "participant_66", "trial": 47, "response_speaker": "machine", "machine_groundtruth": "", "imageID": 66, "caption": "battlefield", "counterbalance": 0, "groundtruth": "human", "phase": "TEST", "human_groundtruth": "human", "real_gender": "female", "response_gender": "male"}}, "Trial_51": {"workerID": "A19ZWBQT8A3LIR", "workerData": {"country": "United States", "age": "31-35", "engagement": "5", "difficulty": "5", "mode": "live", "gender": "male", "education": "bachelor", "condition": 0, "native": "yes"}, "trialData": {"rt": 4477, "hit": "participant_21", "trial": 50, "response_speaker": "human", "machine_groundtruth": "word2vec", "imageID": 21, "caption": "presidential", "counterbalance": 0, "groundtruth": "machine", "phase": "TEST", "human_groundtruth": "", "real_gender": "", "response_gender": "female"}}, "Trial_52": {"workerID": "A1N7GHHBH8GMVZ", "workerData": {"country": "United States", "age": "31-35", "engagement": "7", "difficulty": "2", "mode": "live", "gender": "male", "education": "bachelor", "condition": 0, "native": "yes"}, "trialData": {"rt": 6457, "hit": "participant_66", "trial": 3, "response_speaker": "human", "machine_groundtruth": "", "imageID": 66, "caption": "battlefield", "counterbalance": 0, "groundtruth": "human", "phase": "TEST", "human_groundtruth": "human", "real_gender": "male", "response_gender": "male"}}, "Trial_53": {"workerID": "A1N7GHHBH8GMVZ", "workerData": {"country": "United States", "age": "31-35", "engagement": "7", "difficulty": "2", "mode": "live", "gender": "male", "education": "bachelor", "condition": 0, "native": "yes"}, "trialData": {"rt": 7696, "hit": "participant_137", "trial": 5, "response_speaker": "human", "machine_groundtruth": "", "imageID": 137, "caption": "fred", "counterbalance": 0, "groundtruth": "human", "phase": "TEST", "human_groundtruth": "human", "real_gender": "male", "response_gender": "male"}}, "Trial_54": {"workerID": "A1N7GHHBH8GMVZ", "workerData": {"country": "United States", "age": "31-35", "engagement": "7", "difficulty": "2", "mode": "live", "gender": "male", "education": "bachelor", "condition": 0, "native": "yes"}, "trialData": {"rt": 13836, "hit": "participant_39", "trial": 6, "response_speaker": "machine", "machine_groundtruth": "", "imageID": 39, "caption": "revolutionary", "counterbalance": 0, "groundtruth": "human", "phase": "TEST", "human_groundtruth": "human", "real_gender": "male", "response_gender": "male"}}, "Trial_55": {"workerID": "A1N7GHHBH8GMVZ", "workerData": {"country": "United States", "age": "31-35", "engagement": "7", "difficulty": "2", "mode": "live", "gender": "male", "education": "bachelor", "condition": 0, "native": "yes"}, "trialData": {"rt": 7087, "hit": "participant_30", "trial": 8, "response_speaker": "machine", "machine_groundtruth": "gpt2", "imageID": 30, "caption": "ingenious", "counterbalance": 0, "groundtruth": "machine", "phase": "TEST", "human_groundtruth": "", "real_gender": "", "response_gender": "male"}}, "Trial_56": {"workerID": "A1N7GHHBH8GMVZ", "workerData": {"country": "United States", "age": "31-35", "engagement": "7", "difficulty": "2", "mode": "live", "gender": "male", "education": "bachelor", "condition": 0, "native": "yes"}, "trialData": {"rt": 7549, "hit": "participant_113", "trial": 9, "response_speaker": "machine", "machine_groundtruth": "", "imageID": 113, "caption": "reduce", "counterbalance": 0, "groundtruth": "human", "phase": "TEST", "human_groundtruth": "human", "real_gender": "male", "response_gender": "male"}}, "Trial_57": {"workerID": "A1N7GHHBH8GMVZ", "workerData": {"country": "United States", "age": "31-35", "engagement": "7", "difficulty": "2", "mode": "live", "gender": "male", "education": "bachelor", "condition": 0, "native": "yes"}, "trialData": {"rt": 13343, "hit": "participant_110", "trial": 10, "response_speaker": "machine", "machine_groundtruth": "gpt3 (prompt davinvci)", "imageID": 110, "caption": "improve", "counterbalance": 0, "groundtruth": "machine", "phase": "TEST", "human_groundtruth": "", "real_gender": "", "response_gender": "male"}}, "Trial_58": {"workerID": "A1N7GHHBH8GMVZ", "workerData": {"country": "United States", "age": "31-35", "engagement": "7", "difficulty": "2", "mode": "live", "gender": "male", "education": "bachelor", "condition": 0, "native": "yes"}, "trialData": {"rt": 13518, "hit": "participant_43", "trial": 11, "response_speaker": "human", "machine_groundtruth": "gpt2", "imageID": 43, "caption": "nationwide", "counterbalance": 0, "groundtruth": "machine", "phase": "TEST", "human_groundtruth": "", "real_gender": "", "response_gender": "female"}}, "Trial_59": {"workerID": "A1N7GHHBH8GMVZ", "workerData": {"country": "United States", "age": "31-35", "engagement": "7", "difficulty": "2", "mode": "live", "gender": "male", "education": "bachelor", "condition": 0, "native": "yes"}, "trialData": {"rt": 8442, "hit": "participant_97", "trial": 12, "response_speaker": "machine", "machine_groundtruth": "gpt3 (embedding)", "imageID": 97, "caption": "entertain", "counterbalance": 0, "groundtruth": "machine", "phase": "TEST", "human_groundtruth": "", "real_gender": "", "response_gender": "female"}}, "Trial_60": {"workerID": "A1N7GHHBH8GMVZ", "workerData": {"country": "United States", "age": "31-35", "engagement": "7", "difficulty": "2", "mode": "live", "gender": "male", "education": "bachelor", "condition": 0, "native": "yes"}, "trialData": {"rt": 7663, "hit": "participant_11", "trial": 13, "response_speaker": "machine", "machine_groundtruth": "", "imageID": 11, "caption": "technician", "counterbalance": 0, "groundtruth": "human", "phase": "TEST", "human_groundtruth": "human", "real_gender": "male", "response_gender": "female"}}, "Trial_61": {"workerID": "A1N7GHHBH8GMVZ", "workerData": {"country": "United States", "age": "31-35", "engagement": "7", "difficulty": "2", "mode": "live", "gender": "male", "education": "bachelor", "condition": 0, "native": "yes"}, "trialData": {"rt": 8741, "hit": "participant_131", "trial": 14, "response_speaker": "machine", "machine_groundtruth": "word2vec", "imageID": 131, "caption": "bloodshed", "counterbalance": 0, "groundtruth": "machine", "phase": "TEST", "human_groundtruth": "", "real_gender": "", "response_gender": "female"}}, "Trial_62": {"workerID": "A1N7GHHBH8GMVZ", "workerData": {"country": "United States", "age": "31-35", "engagement": "7", "difficulty": "2", "mode": "live", "gender": "male", "education": "bachelor", "condition": 0, "native": "yes"}, "trialData": {"rt": 8572, "hit": "participant_69", "trial": 15, "response_speaker": "machine", "machine_groundtruth": "", "imageID": 69, "caption": "cancer", "counterbalance": 0, "groundtruth": "human", "phase": "TEST", "human_groundtruth": "human", "real_gender": "female", "response_gender": "male"}}, "Trial_63": {"workerID": "A1N7GHHBH8GMVZ", "workerData": {"country": "United States", "age": "31-35", "engagement": "7", "difficulty": "2", "mode": "live", "gender": "male", "education": "bachelor", "condition": 0, "native": "yes"}, "trialData": {"rt": 6291, "hit": "participant_0", "trial": 18, "response_speaker": "machine", "machine_groundtruth": "", "imageID": 0, "caption": "memorable", "counterbalance": 0, "groundtruth": "human", "phase": "TEST", "human_groundtruth": "human", "real_gender": "female", "response_gender": "male"}}, "Trial_64": {"workerID": "A1N7GHHBH8GMVZ", "workerData": {"country": "United States", "age": "31-35", "engagement": "7", "difficulty": "2", "mode": "live", "gender": "male", "education": "bachelor", "condition": 0, "native": "yes"}, "trialData": {"rt": 5046, "hit": "participant_23", "trial": 19, "response_speaker": "human", "machine_groundtruth": "", "imageID": 23, "caption": "impressive", "counterbalance": 0, "groundtruth": "human", "phase": "TEST", "human_groundtruth": "human", "real_gender": "male", "response_gender": "female"}}, "Trial_65": {"workerID": "A1N7GHHBH8GMVZ", "workerData": {"country": "United States", "age": "31-35", "engagement": "7", "difficulty": "2", "mode": "live", "gender": "male", "education": "bachelor", "condition": 0, "native": "yes"}, "trialData": {"rt": 5015, "hit": "participant_111", "trial": 20, "response_speaker": "machine", "machine_groundtruth": "", "imageID": 111, "caption": "ping", "counterbalance": 0, "groundtruth": "human", "phase": "TEST", "human_groundtruth": "human", "real_gender": "female", "response_gender": "male"}}, "Trial_66": {"workerID": "A1N7GHHBH8GMVZ", "workerData": {"country": "United States", "age": "31-35", "engagement": "7", "difficulty": "2", "mode": "live", "gender": "male", "education": "bachelor", "condition": 0, "native": "yes"}, "trialData": {"rt": 9812, "hit": "participant_29", "trial": 22, "response_speaker": "human", "machine_groundtruth": "word2vec", "imageID": 29, "caption": "rebellious", "counterbalance": 0, "groundtruth": "machine", "phase": "TEST", "human_groundtruth": "", "real_gender": "", "response_gender": "male"}}, "Trial_67": {"workerID": "A1N7GHHBH8GMVZ", "workerData": {"country": "United States", "age": "31-35", "engagement": "7", "difficulty": "2", "mode": "live", "gender": "male", "education": "bachelor", "condition": 0, "native": "yes"}, "trialData": {"rt": 9337, "hit": "participant_129", "trial": 24, "response_speaker": "human", "machine_groundtruth": "", "imageID": 129, "caption": "settle", "counterbalance": 0, "groundtruth": "human", "phase": "TEST", "human_groundtruth": "human", "real_gender": "female", "response_gender": "female"}}, "Trial_68": {"workerID": "A1N7GHHBH8GMVZ", "workerData": {"country": "United States", "age": "31-35", "engagement": "7", "difficulty": "2", "mode": "live", "gender": "male", "education": "bachelor", "condition": 0, "native": "yes"}, "trialData": {"rt": 7962, "hit": "participant_53", "trial": 26, "response_speaker": "machine", "machine_groundtruth": "gpt2", "imageID": 53, "caption": "stanford", "counterbalance": 0, "groundtruth": "machine", "phase": "TEST", "human_groundtruth": "", "real_gender": "", "response_gender": "male"}}, "Trial_69": {"workerID": "A1N7GHHBH8GMVZ", "workerData": {"country": "United States", "age": "31-35", "engagement": "7", "difficulty": "2", "mode": "live", "gender": "male", "education": "bachelor", "condition": 0, "native": "yes"}, "trialData": {"rt": 12849, "hit": "participant_101", "trial": 27, "response_speaker": "machine", "machine_groundtruth": "gpt3 (prompt davinvci)", "imageID": 101, "caption": "expose", "counterbalance": 0, "groundtruth": "machine", "phase": "TEST", "human_groundtruth": "", "real_gender": "", "response_gender": "male"}}, "Trial_70": {"workerID": "A1N7GHHBH8GMVZ", "workerData": {"country": "United States", "age": "31-35", "engagement": "7", "difficulty": "2", "mode": "live", "gender": "male", "education": "bachelor", "condition": 0, "native": "yes"}, "trialData": {"rt": 34060, "hit": "participant_37", "trial": 28, "response_speaker": "human", "machine_groundtruth": "gpt2", "imageID": 37, "caption": "intangible", "counterbalance": 0, "groundtruth": "machine", "phase": "TEST", "human_groundtruth": "", "real_gender": "", "response_gender": "male"}}, "Trial_71": {"workerID": "A1N7GHHBH8GMVZ", "workerData": {"country": "United States", "age": "31-35", "engagement": "7", "difficulty": "2", "mode": "live", "gender": "male", "education": "bachelor", "condition": 0, "native": "yes"}, "trialData": {"rt": 9097, "hit": "participant_90", "trial": 29, "response_speaker": "human", "machine_groundtruth": "word2vec", "imageID": 90, "caption": "maid", "counterbalance": 0, "groundtruth": "machine", "phase": "TEST", "human_groundtruth": "", "real_gender": "", "response_gender": "female"}}, "Trial_72": {"workerID": "A1N7GHHBH8GMVZ", "workerData": {"country": "United States", "age": "31-35", "engagement": "7", "difficulty": "2", "mode": "live", "gender": "male", "education": "bachelor", "condition": 0, "native": "yes"}, "trialData": {"rt": 12092, "hit": "participant_119", "trial": 30, "response_speaker": "human", "machine_groundtruth": "", "imageID": 119, "caption": "assume", "counterbalance": 0, "groundtruth": "human", "phase": "TEST", "human_groundtruth": "human", "real_gender": "male", "response_gender": "female"}}, "Trial_73": {"workerID": "A1N7GHHBH8GMVZ", "workerData": {"country": "United States", "age": "31-35", "engagement": "7", "difficulty": "2", "mode": "live", "gender": "male", "education": "bachelor", "condition": 0, "native": "yes"}, "trialData": {"rt": 9074, "hit": "participant_59", "trial": 31, "response_speaker": "human", "machine_groundtruth": "word2vec", "imageID": 59, "caption": "curry", "counterbalance": 0, "groundtruth": "machine", "phase": "TEST", "human_groundtruth": "", "real_gender": "", "response_gender": "female"}}, "Trial_74": {"workerID": "A1N7GHHBH8GMVZ", "workerData": {"country": "United States", "age": "31-35", "engagement": "7", "difficulty": "2", "mode": "live", "gender": "male", "education": "bachelor", "condition": 0, "native": "yes"}, "trialData": {"rt": 19197, "hit": "participant_92", "trial": 35, "response_speaker": "machine", "machine_groundtruth": "gpt3 (embedding)", "imageID": 92, "caption": "constitute", "counterbalance": 0, "groundtruth": "machine", "phase": "TEST", "human_groundtruth": "", "real_gender": "", "response_gender": "male"}}, "Trial_75": {"workerID": "A1N7GHHBH8GMVZ", "workerData": {"country": "United States", "age": "31-35", "engagement": "7", "difficulty": "2", "mode": "live", "gender": "male", "education": "bachelor", "condition": 0, "native": "yes"}, "trialData": {"rt": 9797, "hit": "participant_44", "trial": 37, "response_speaker": "human", "machine_groundtruth": "", "imageID": 44, "caption": "synaptic", "counterbalance": 0, "groundtruth": "human", "phase": "TEST", "human_groundtruth": "human", "real_gender": "female", "response_gender": "female"}}, "Trial_76": {"workerID": "A1N7GHHBH8GMVZ", "workerData": {"country": "United States", "age": "31-35", "engagement": "7", "difficulty": "2", "mode": "live", "gender": "male", "education": "bachelor", "condition": 0, "native": "yes"}, "trialData": {"rt": 10986, "hit": "participant_106", "trial": 38, "response_speaker": "human", "machine_groundtruth": "", "imageID": 106, "caption": "kindle", "counterbalance": 0, "groundtruth": "human", "phase": "TEST", "human_groundtruth": "human", "real_gender": "female", "response_gender": "female"}}, "Trial_77": {"workerID": "A1N7GHHBH8GMVZ", "workerData": {"country": "United States", "age": "31-35", "engagement": "7", "difficulty": "2", "mode": "live", "gender": "male", "education": "bachelor", "condition": 0, "native": "yes"}, "trialData": {"rt": 8678, "hit": "participant_9", "trial": 39, "response_speaker": "human", "machine_groundtruth": "", "imageID": 9, "caption": "oriental", "counterbalance": 0, "groundtruth": "human", "phase": "TEST", "human_groundtruth": "human", "real_gender": "female", "response_gender": "male"}}, "Trial_78": {"workerID": "A1N7GHHBH8GMVZ", "workerData": {"country": "United States", "age": "31-35", "engagement": "7", "difficulty": "2", "mode": "live", "gender": "male", "education": "bachelor", "condition": 0, "native": "yes"}, "trialData": {"rt": 14768, "hit": "participant_114", "trial": 41, "response_speaker": "human", "machine_groundtruth": "", "imageID": 114, "caption": "infrared", "counterbalance": 0, "groundtruth": "human", "phase": "TEST", "human_groundtruth": "human", "real_gender": "female", "response_gender": "male"}}, "Trial_79": {"workerID": "A1N7GHHBH8GMVZ", "workerData": {"country": "United States", "age": "31-35", "engagement": "7", "difficulty": "2", "mode": "live", "gender": "male", "education": "bachelor", "condition": 0, "native": "yes"}, "trialData": {"rt": 10009, "hit": "participant_41", "trial": 42, "response_speaker": "machine", "machine_groundtruth": "", "imageID": 41, "caption": "schematic", "counterbalance": 0, "groundtruth": "human", "phase": "TEST", "human_groundtruth": "human", "real_gender": "female", "response_gender": "male"}}, "Trial_80": {"workerID": "A1N7GHHBH8GMVZ", "workerData": {"country": "United States", "age": "31-35", "engagement": "7", "difficulty": "2", "mode": "live", "gender": "male", "education": "bachelor", "condition": 0, "native": "yes"}, "trialData": {"rt": 8268, "hit": "participant_6", "trial": 43, "response_speaker": "human", "machine_groundtruth": "gpt2", "imageID": 6, "caption": "healthy", "counterbalance": 0, "groundtruth": "machine", "phase": "TEST", "human_groundtruth": "", "real_gender": "", "response_gender": "female"}}, "Trial_81": {"workerID": "A1N7GHHBH8GMVZ", "workerData": {"country": "United States", "age": "31-35", "engagement": "7", "difficulty": "2", "mode": "live", "gender": "male", "education": "bachelor", "condition": 0, "native": "yes"}, "trialData": {"rt": 8303, "hit": "participant_19", "trial": 44, "response_speaker": "machine", "machine_groundtruth": "", "imageID": 19, "caption": "exclusive", "counterbalance": 0, "groundtruth": "human", "phase": "TEST", "human_groundtruth": "human", "real_gender": "female", "response_gender": "female"}}, "Trial_82": {"workerID": "A1N7GHHBH8GMVZ", "workerData": {"country": "United States", "age": "31-35", "engagement": "7", "difficulty": "2", "mode": "live", "gender": "male", "education": "bachelor", "condition": 0, "native": "yes"}, "trialData": {"rt": 7836, "hit": "participant_63", "trial": 49, "response_speaker": "human", "machine_groundtruth": "gpt3 (embedding)", "imageID": 63, "caption": "material", "counterbalance": 0, "groundtruth": "machine", "phase": "TEST", "human_groundtruth": "", "real_gender": "", "response_gender": "female"}}, "Trial_83": {"workerID": "A1N7GHHBH8GMVZ", "workerData": {"country": "United States", "age": "31-35", "engagement": "7", "difficulty": "2", "mode": "live", "gender": "male", "education": "bachelor", "condition": 0, "native": "yes"}, "trialData": {"rt": 12671, "hit": "participant_62", "trial": 50, "response_speaker": "human", "machine_groundtruth": "gpt2", "imageID": 62, "caption": "mainland", "counterbalance": 0, "groundtruth": "machine", "phase": "TEST", "human_groundtruth": "", "real_gender": "", "response_gender": "male"}}, "Trial_84": {"workerID": "A252EOYQTHCKDC", "workerData": {"country": "Albania", "age": "26-30", "engagement": "8", "difficulty": "3", "mode": "live", "gender": "male", "education": "master", "condition": 0, "native": "yes"}, "trialData": {"rt": 6027, "hit": "participant_43", "trial": 2, "response_speaker": "machine", "machine_groundtruth": "", "imageID": 43, "caption": "nationwide", "counterbalance": 0, "groundtruth": "human", "phase": "TEST", "human_groundtruth": "human", "real_gender": "male", "response_gender": "male"}}, "Trial_85": {"workerID": "A252EOYQTHCKDC", "workerData": {"country": "Albania", "age": "26-30", "engagement": "8", "difficulty": "3", "mode": "live", "gender": "male", "education": "master", "condition": 0, "native": "yes"}, "trialData": {"rt": 4981, "hit": "participant_102", "trial": 3, "response_speaker": "human", "machine_groundtruth": "gpt3 (prompt curie)", "imageID": 102, "caption": "impose", "counterbalance": 0, "groundtruth": "machine", "phase": "TEST", "human_groundtruth": "", "real_gender": "", "response_gender": "male"}}, "Trial_86": {"workerID": "A252EOYQTHCKDC", "workerData": {"country": "Albania", "age": "26-30", "engagement": "8", "difficulty": "3", "mode": "live", "gender": "male", "education": "master", "condition": 0, "native": "yes"}, "trialData": {"rt": 6159, "hit": "participant_144", "trial": 5, "response_speaker": "human", "machine_groundtruth": "", "imageID": 144, "caption": "hatred", "counterbalance": 0, "groundtruth": "human", "phase": "TEST", "human_groundtruth": "human", "real_gender": "female", "response_gender": "male"}}, "Trial_87": {"workerID": "A252EOYQTHCKDC", "workerData": {"country": "Albania", "age": "26-30", "engagement": "8", "difficulty": "3", "mode": "live", "gender": "male", "education": "master", "condition": 0, "native": "yes"}, "trialData": {"rt": 12343, "hit": "participant_99", "trial": 7, "response_speaker": "machine", "machine_groundtruth": "gpt3 (prompt curie)", "imageID": 99, "caption": "prototype", "counterbalance": 0, "groundtruth": "machine", "phase": "TEST", "human_groundtruth": "", "real_gender": "", "response_gender": "male"}}, "Trial_88": {"workerID": "A252EOYQTHCKDC", "workerData": {"country": "Albania", "age": "26-30", "engagement": "8", "difficulty": "3", "mode": "live", "gender": "male", "education": "master", "condition": 0, "native": "yes"}, "trialData": {"rt": 13407, "hit": "participant_121", "trial": 9, "response_speaker": "human", "machine_groundtruth": "gpt2", "imageID": 121, "caption": "aforementioned", "counterbalance": 0, "groundtruth": "machine", "phase": "TEST", "human_groundtruth": "", "real_gender": "", "response_gender": "male"}}, "Trial_89": {"workerID": "A252EOYQTHCKDC", "workerData": {"country": "Albania", "age": "26-30", "engagement": "8", "difficulty": "3", "mode": "live", "gender": "male", "education": "master", "condition": 0, "native": "yes"}, "trialData": {"rt": 5022, "hit": "participant_67", "trial": 12, "response_speaker": "human", "machine_groundtruth": "", "imageID": 67, "caption": "dodge", "counterbalance": 0, "groundtruth": "human", "phase": "TEST", "human_groundtruth": "human", "real_gender": "female", "response_gender": "male"}}, "Trial_90": {"workerID": "A252EOYQTHCKDC", "workerData": {"country": "Albania", "age": "26-30", "engagement": "8", "difficulty": "3", "mode": "live", "gender": "male", "education": "master", "condition": 0, "native": "yes"}, "trialData": {"rt": 4816, "hit": "participant_74", "trial": 13, "response_speaker": "human", "machine_groundtruth": "", "imageID": 74, "caption": "nixon", "counterbalance": 0, "groundtruth": "human", "phase": "TEST", "human_groundtruth": "human", "real_gender": "male", "response_gender": "male"}}, "Trial_91": {"workerID": "A252EOYQTHCKDC", "workerData": {"country": "Albania", "age": "26-30", "engagement": "8", "difficulty": "3", "mode": "live", "gender": "male", "education": "master", "condition": 0, "native": "yes"}, "trialData": {"rt": 3423, "hit": "participant_65", "trial": 14, "response_speaker": "human", "machine_groundtruth": "gpt3 (prompt davinvci)", "imageID": 65, "caption": "zombie", "counterbalance": 0, "groundtruth": "machine", "phase": "TEST", "human_groundtruth": "", "real_gender": "", "response_gender": "male"}}, "Trial_92": {"workerID": "A252EOYQTHCKDC", "workerData": {"country": "Albania", "age": "26-30", "engagement": "8", "difficulty": "3", "mode": "live", "gender": "male", "education": "master", "condition": 0, "native": "yes"}, "trialData": {"rt": 4299, "hit": "participant_3", "trial": 15, "response_speaker": "human", "machine_groundtruth": "", "imageID": 3, "caption": "grand", "counterbalance": 0, "groundtruth": "human", "phase": "TEST", "human_groundtruth": "human", "real_gender": "female", "response_gender": "male"}}, "Trial_93": {"workerID": "A252EOYQTHCKDC", "workerData": {"country": "Albania", "age": "26-30", "engagement": "8", "difficulty": "3", "mode": "live", "gender": "male", "education": "master", "condition": 0, "native": "yes"}, "trialData": {"rt": 4580, "hit": "participant_9", "trial": 16, "response_speaker": "human", "machine_groundtruth": "", "imageID": 9, "caption": "oriental", "counterbalance": 0, "groundtruth": "human", "phase": "TEST", "human_groundtruth": "human", "real_gender": "male", "response_gender": "male"}}, "Trial_94": {"workerID": "A252EOYQTHCKDC", "workerData": {"country": "Albania", "age": "26-30", "engagement": "8", "difficulty": "3", "mode": "live", "gender": "male", "education": "master", "condition": 0, "native": "yes"}, "trialData": {"rt": 4831, "hit": "participant_69", "trial": 19, "response_speaker": "human", "machine_groundtruth": "", "imageID": 69, "caption": "cancer", "counterbalance": 0, "groundtruth": "human", "phase": "TEST", "human_groundtruth": "human", "real_gender": "female", "response_gender": "male"}}, "Trial_95": {"workerID": "A252EOYQTHCKDC", "workerData": {"country": "Albania", "age": "26-30", "engagement": "8", "difficulty": "3", "mode": "live", "gender": "male", "education": "master", "condition": 0, "native": "yes"}, "trialData": {"rt": 4398, "hit": "participant_106", "trial": 20, "response_speaker": "human", "machine_groundtruth": "gpt2", "imageID": 106, "caption": "kindle", "counterbalance": 0, "groundtruth": "machine", "phase": "TEST", "human_groundtruth": "", "real_gender": "", "response_gender": "male"}}, "Trial_96": {"workerID": "A252EOYQTHCKDC", "workerData": {"country": "Albania", "age": "26-30", "engagement": "8", "difficulty": "3", "mode": "live", "gender": "male", "education": "master", "condition": 0, "native": "yes"}, "trialData": {"rt": 4424, "hit": "participant_147", "trial": 21, "response_speaker": "human", "machine_groundtruth": "word2vec", "imageID": 147, "caption": "make", "counterbalance": 0, "groundtruth": "machine", "phase": "TEST", "human_groundtruth": "", "real_gender": "", "response_gender": "male"}}, "Trial_97": {"workerID": "A252EOYQTHCKDC", "workerData": {"country": "Albania", "age": "26-30", "engagement": "8", "difficulty": "3", "mode": "live", "gender": "male", "education": "master", "condition": 0, "native": "yes"}, "trialData": {"rt": 5712, "hit": "participant_53", "trial": 24, "response_speaker": "human", "machine_groundtruth": "", "imageID": 53, "caption": "stanford", "counterbalance": 0, "groundtruth": "human", "phase": "TEST", "human_groundtruth": "human", "real_gender": "female", "response_gender": "male"}}, "Trial_98": {"workerID": "A252EOYQTHCKDC", "workerData": {"country": "Albania", "age": "26-30", "engagement": "8", "difficulty": "3", "mode": "live", "gender": "male", "education": "master", "condition": 0, "native": "yes"}, "trialData": {"rt": 4191, "hit": "participant_63", "trial": 28, "response_speaker": "human", "machine_groundtruth": "gpt3 (prompt davinvci)", "imageID": 63, "caption": "material", "counterbalance": 0, "groundtruth": "machine", "phase": "TEST", "human_groundtruth": "", "real_gender": "", "response_gender": "male"}}, "Trial_99": {"workerID": "A252EOYQTHCKDC", "workerData": {"country": "Albania", "age": "26-30", "engagement": "8", "difficulty": "3", "mode": "live", "gender": "male", "education": "master", "condition": 0, "native": "yes"}, "trialData": {"rt": 6871, "hit": "participant_120", "trial": 30, "response_speaker": "human", "machine_groundtruth": "gpt3 (prompt curie)", "imageID": 120, "caption": "identify", "counterbalance": 0, "groundtruth": "machine", "phase": "TEST", "human_groundtruth": "", "real_gender": "", "response_gender": "male"}}, "Trial_100": {"workerID": "A252EOYQTHCKDC", "workerData": {"country": "Albania", "age": "26-30", "engagement": "8", "difficulty": "3", "mode": "live", "gender": "male", "education": "master", "condition": 0, "native": "yes"}, "trialData": {"rt": 4871, "hit": "participant_85", "trial": 33, "response_speaker": "human", "machine_groundtruth": "", "imageID": 85, "caption": "distinguish", "counterbalance": 0, "groundtruth": "human", "phase": "TEST", "human_groundtruth": "human", "real_gender": "male", "response_gender": "male"}}, "Trial_101": {"workerID": "A252EOYQTHCKDC", "workerData": {"country": "Albania", "age": "26-30", "engagement": "8", "difficulty": "3", "mode": "live", "gender": "male", "education": "master", "condition": 0, "native": "yes"}, "trialData": {"rt": 5353, "hit": "participant_11", "trial": 34, "response_speaker": "human", "machine_groundtruth": "word2vec", "imageID": 11, "caption": "technician", "counterbalance": 0, "groundtruth": "machine", "phase": "TEST", "human_groundtruth": "", "real_gender": "", "response_gender": "male"}}, "Trial_102": {"workerID": "A252EOYQTHCKDC", "workerData": {"country": "Albania", "age": "26-30", "engagement": "8", "difficulty": "3", "mode": "live", "gender": "male", "education": "master", "condition": 0, "native": "yes"}, "trialData": {"rt": 5413, "hit": "participant_44", "trial": 35, "response_speaker": "human", "machine_groundtruth": "word2vec", "imageID": 44, "caption": "synaptic", "counterbalance": 0, "groundtruth": "machine", "phase": "TEST", "human_groundtruth": "", "real_gender": "", "response_gender": "male"}}, "Trial_103": {"workerID": "A252EOYQTHCKDC", "workerData": {"country": "Albania", "age": "26-30", "engagement": "8", "difficulty": "3", "mode": "live", "gender": "male", "education": "master", "condition": 0, "native": "yes"}, "trialData": {"rt": 3585, "hit": "participant_90", "trial": 36, "response_speaker": "human", "machine_groundtruth": "", "imageID": 90, "caption": "maid", "counterbalance": 0, "groundtruth": "human", "phase": "TEST", "human_groundtruth": "human", "real_gender": "female", "response_gender": "male"}}, "Trial_104": {"workerID": "A252EOYQTHCKDC", "workerData": {"country": "Albania", "age": "26-30", "engagement": "8", "difficulty": "3", "mode": "live", "gender": "male", "education": "master", "condition": 0, "native": "yes"}, "trialData": {"rt": 5733, "hit": "participant_41", "trial": 37, "response_speaker": "human", "machine_groundtruth": "", "imageID": 41, "caption": "schematic", "counterbalance": 0, "groundtruth": "human", "phase": "TEST", "human_groundtruth": "human", "real_gender": "female", "response_gender": "male"}}, "Trial_105": {"workerID": "A252EOYQTHCKDC", "workerData": {"country": "Albania", "age": "26-30", "engagement": "8", "difficulty": "3", "mode": "live", "gender": "male", "education": "master", "condition": 0, "native": "yes"}, "trialData": {"rt": 4335, "hit": "participant_0", "trial": 38, "response_speaker": "human", "machine_groundtruth": "gpt2", "imageID": 0, "caption": "memorable", "counterbalance": 0, "groundtruth": "machine", "phase": "TEST", "human_groundtruth": "", "real_gender": "", "response_gender": "male"}}, "Trial_106": {"workerID": "A252EOYQTHCKDC", "workerData": {"country": "Albania", "age": "26-30", "engagement": "8", "difficulty": "3", "mode": "live", "gender": "male", "education": "master", "condition": 0, "native": "yes"}, "trialData": {"rt": 8506, "hit": "participant_101", "trial": 43, "response_speaker": "human", "machine_groundtruth": "", "imageID": 101, "caption": "expose", "counterbalance": 0, "groundtruth": "human", "phase": "TEST", "human_groundtruth": "human", "real_gender": "male", "response_gender": "male"}}, "Trial_107": {"workerID": "A252EOYQTHCKDC", "workerData": {"country": "Albania", "age": "26-30", "engagement": "8", "difficulty": "3", "mode": "live", "gender": "male", "education": "master", "condition": 0, "native": "yes"}, "trialData": {"rt": 5159, "hit": "participant_60", "trial": 47, "response_speaker": "human", "machine_groundtruth": "word2vec", "imageID": 60, "caption": "revelation", "counterbalance": 0, "groundtruth": "machine", "phase": "TEST", "human_groundtruth": "", "real_gender": "", "response_gender": "male"}}, "Trial_108": {"workerID": "A252EOYQTHCKDC", "workerData": {"country": "Albania", "age": "26-30", "engagement": "8", "difficulty": "3", "mode": "live", "gender": "male", "education": "master", "condition": 0, "native": "yes"}, "trialData": {"rt": 5823, "hit": "participant_48", "trial": 48, "response_speaker": "human", "machine_groundtruth": "", "imageID": 48, "caption": "military", "counterbalance": 0, "groundtruth": "human", "phase": "TEST", "human_groundtruth": "human", "real_gender": "female", "response_gender": "male"}}, "Trial_109": {"workerID": "A252EOYQTHCKDC", "workerData": {"country": "Albania", "age": "26-30", "engagement": "8", "difficulty": "3", "mode": "live", "gender": "male", "education": "master", "condition": 0, "native": "yes"}, "trialData": {"rt": 5921, "hit": "participant_7", "trial": 49, "response_speaker": "human", "machine_groundtruth": "gpt3 (prompt davinvci)", "imageID": 7, "caption": "credible", "counterbalance": 0, "groundtruth": "machine", "phase": "TEST", "human_groundtruth": "", "real_gender": "", "response_gender": "male"}}, "Trial_110": {"workerID": "A252EOYQTHCKDC", "workerData": {"country": "Albania", "age": "26-30", "engagement": "8", "difficulty": "3", "mode": "live", "gender": "male", "education": "master", "condition": 0, "native": "yes"}, "trialData": {"rt": 6015, "hit": "participant_64", "trial": 50, "response_speaker": "human", "machine_groundtruth": "gpt3 (embedding)", "imageID": 64, "caption": "oppose", "counterbalance": 0, "groundtruth": "machine", "phase": "TEST", "human_groundtruth": "", "real_gender": "", "response_gender": "male"}}, "Trial_111": {"workerID": "A3R0S4QK7VY0QA", "workerData": {"country": "United States", "age": "21-25", "engagement": "4", "difficulty": "7", "mode": "live", "gender": "female", "education": "bachelor", "condition": 0, "native": "yes"}, "trialData": {"rt": 115867, "hit": "participant_102", "trial": 1, "response_speaker": "machine", "machine_groundtruth": "gpt3 (prompt curie)", "imageID": 102, "caption": "impose", "counterbalance": 0, "groundtruth": "machine", "phase": "TEST", "human_groundtruth": "", "real_gender": "", "response_gender": "female"}}, "Trial_112": {"workerID": "A3R0S4QK7VY0QA", "workerData": {"country": "United States", "age": "21-25", "engagement": "4", "difficulty": "7", "mode": "live", "gender": "female", "education": "bachelor", "condition": 0, "native": "yes"}, "trialData": {"rt": 34224, "hit": "participant_90", "trial": 3, "response_speaker": "human", "machine_groundtruth": "", "imageID": 90, "caption": "maid", "counterbalance": 0, "groundtruth": "human", "phase": "TEST", "human_groundtruth": "human", "real_gender": "female", "response_gender": "female"}}, "Trial_113": {"workerID": "A3R0S4QK7VY0QA", "workerData": {"country": "United States", "age": "21-25", "engagement": "4", "difficulty": "7", "mode": "live", "gender": "female", "education": "bachelor", "condition": 0, "native": "yes"}, "trialData": {"rt": 9190, "hit": "participant_46", "trial": 8, "response_speaker": "machine", "machine_groundtruth": "", "imageID": 46, "caption": "able", "counterbalance": 0, "groundtruth": "human", "phase": "TEST", "human_groundtruth": "human", "real_gender": "female", "response_gender": "female"}}, "Trial_114": {"workerID": "A3R0S4QK7VY0QA", "workerData": {"country": "United States", "age": "21-25", "engagement": "4", "difficulty": "7", "mode": "live", "gender": "female", "education": "bachelor", "condition": 0, "native": "yes"}, "trialData": {"rt": 9074, "hit": "participant_29", "trial": 9, "response_speaker": "human", "machine_groundtruth": "", "imageID": 29, "caption": "rebellious", "counterbalance": 0, "groundtruth": "human", "phase": "TEST", "human_groundtruth": "human", "real_gender": "male", "response_gender": "female"}}, "Trial_115": {"workerID": "A3R0S4QK7VY0QA", "workerData": {"country": "United States", "age": "21-25", "engagement": "4", "difficulty": "7", "mode": "live", "gender": "female", "education": "bachelor", "condition": 0, "native": "yes"}, "trialData": {"rt": 11382, "hit": "participant_120", "trial": 10, "response_speaker": "human", "machine_groundtruth": "gpt2", "imageID": 120, "caption": "identify", "counterbalance": 0, "groundtruth": "machine", "phase": "TEST", "human_groundtruth": "", "real_gender": "", "response_gender": "female"}}, "Trial_116": {"workerID": "A3R0S4QK7VY0QA", "workerData": {"country": "United States", "age": "21-25", "engagement": "4", "difficulty": "7", "mode": "live", "gender": "female", "education": "bachelor", "condition": 0, "native": "yes"}, "trialData": {"rt": 19015, "hit": "participant_135", "trial": 11, "response_speaker": "human", "machine_groundtruth": "word2vec", "imageID": 135, "caption": "quantify", "counterbalance": 0, "groundtruth": "machine", "phase": "TEST", "human_groundtruth": "", "real_gender": "", "response_gender": "male"}}, "Trial_117": {"workerID": "A3R0S4QK7VY0QA", "workerData": {"country": "United States", "age": "21-25", "engagement": "4", "difficulty": "7", "mode": "live", "gender": "female", "education": "bachelor", "condition": 0, "native": "yes"}, "trialData": {"rt": 11398, "hit": "participant_97", "trial": 12, "response_speaker": "machine", "machine_groundtruth": "gpt2", "imageID": 97, "caption": "entertain", "counterbalance": 0, "groundtruth": "machine", "phase": "TEST", "human_groundtruth": "", "real_gender": "", "response_gender": "male"}}, "Trial_118": {"workerID": "A3R0S4QK7VY0QA", "workerData": {"country": "United States", "age": "21-25", "engagement": "4", "difficulty": "7", "mode": "live", "gender": "female", "education": "bachelor", "condition": 0, "native": "yes"}, "trialData": {"rt": 969861, "hit": "participant_7", "trial": 16, "response_speaker": "human", "machine_groundtruth": "", "imageID": 7, "caption": "credible", "counterbalance": 0, "groundtruth": "human", "phase": "TEST", "human_groundtruth": "human", "real_gender": "female", "response_gender": "female"}}, "Trial_119": {"workerID": "A3R0S4QK7VY0QA", "workerData": {"country": "United States", "age": "21-25", "engagement": "4", "difficulty": "7", "mode": "live", "gender": "female", "education": "bachelor", "condition": 0, "native": "yes"}, "trialData": {"rt": 7215, "hit": "participant_65", "trial": 20, "response_speaker": "machine", "machine_groundtruth": "", "imageID": 65, "caption": "zombie", "counterbalance": 0, "groundtruth": "human", "phase": "TEST", "human_groundtruth": "human", "real_gender": "male", "response_gender": "male"}}, "Trial_120": {"workerID": "A3R0S4QK7VY0QA", "workerData": {"country": "United States", "age": "21-25", "engagement": "4", "difficulty": "7", "mode": "live", "gender": "female", "education": "bachelor", "condition": 0, "native": "yes"}, "trialData": {"rt": 107001, "hit": "participant_41", "trial": 21, "response_speaker": "machine", "machine_groundtruth": "gpt2", "imageID": 41, "caption": "schematic", "counterbalance": 0, "groundtruth": "machine", "phase": "TEST", "human_groundtruth": "", "real_gender": "", "response_gender": "female"}}, "Trial_121": {"workerID": "A3R0S4QK7VY0QA", "workerData": {"country": "United States", "age": "21-25", "engagement": "4", "difficulty": "7", "mode": "live", "gender": "female", "education": "bachelor", "condition": 0, "native": "yes"}, "trialData": {"rt": 6936, "hit": "participant_23", "trial": 26, "response_speaker": "machine", "machine_groundtruth": "gpt3 (prompt davinvci)", "imageID": 23, "caption": "impressive", "counterbalance": 0, "groundtruth": "machine", "phase": "TEST", "human_groundtruth": "", "real_gender": "", "response_gender": "male"}}, "Trial_122": {"workerID": "A3R0S4QK7VY0QA", "workerData": {"country": "United States", "age": "21-25", "engagement": "4", "difficulty": "7", "mode": "live", "gender": "female", "education": "bachelor", "condition": 0, "native": "yes"}, "trialData": {"rt": 6896, "hit": "participant_19", "trial": 27, "response_speaker": "machine", "machine_groundtruth": "", "imageID": 19, "caption": "exclusive", "counterbalance": 0, "groundtruth": "human", "phase": "TEST", "human_groundtruth": "human", "real_gender": "female", "response_gender": "female"}}, "Trial_123": {"workerID": "A3R0S4QK7VY0QA", "workerData": {"country": "United States", "age": "21-25", "engagement": "4", "difficulty": "7", "mode": "live", "gender": "female", "education": "bachelor", "condition": 0, "native": "yes"}, "trialData": {"rt": 6319, "hit": "participant_131", "trial": 28, "response_speaker": "machine", "machine_groundtruth": "", "imageID": 131, "caption": "bloodshed", "counterbalance": 0, "groundtruth": "human", "phase": "TEST", "human_groundtruth": "human", "real_gender": "male", "response_gender": "male"}}, "Trial_124": {"workerID": "A3R0S4QK7VY0QA", "workerData": {"country": "United States", "age": "21-25", "engagement": "4", "difficulty": "7", "mode": "live", "gender": "female", "education": "bachelor", "condition": 0, "native": "yes"}, "trialData": {"rt": 19854, "hit": "participant_37", "trial": 29, "response_speaker": "machine", "machine_groundtruth": "gpt3 (embedding)", "imageID": 37, "caption": "intangible", "counterbalance": 0, "groundtruth": "machine", "phase": "TEST", "human_groundtruth": "", "real_gender": "", "response_gender": "female"}}, "Trial_125": {"workerID": "A3R0S4QK7VY0QA", "workerData": {"country": "United States", "age": "21-25", "engagement": "4", "difficulty": "7", "mode": "live", "gender": "female", "education": "bachelor", "condition": 0, "native": "yes"}, "trialData": {"rt": 3135, "hit": "participant_27", "trial": 33, "response_speaker": "human", "machine_groundtruth": "", "imageID": 27, "caption": "obnoxious", "counterbalance": 0, "groundtruth": "human", "phase": "TEST", "human_groundtruth": "human", "real_gender": "female", "response_gender": "female"}}, "Trial_126": {"workerID": "A3R0S4QK7VY0QA", "workerData": {"country": "United States", "age": "21-25", "engagement": "4", "difficulty": "7", "mode": "live", "gender": "female", "education": "bachelor", "condition": 0, "native": "yes"}, "trialData": {"rt": 17598, "hit": "participant_0", "trial": 36, "response_speaker": "human", "machine_groundtruth": "word2vec", "imageID": 0, "caption": "memorable", "counterbalance": 0, "groundtruth": "machine", "phase": "TEST", "human_groundtruth": "", "real_gender": "", "response_gender": "female"}}, "Trial_127": {"workerID": "A3R0S4QK7VY0QA", "workerData": {"country": "United States", "age": "21-25", "engagement": "4", "difficulty": "7", "mode": "live", "gender": "female", "education": "bachelor", "condition": 0, "native": "yes"}, "trialData": {"rt": 5671, "hit": "participant_123", "trial": 37, "response_speaker": "human", "machine_groundtruth": "", "imageID": 123, "caption": "watershed", "counterbalance": 0, "groundtruth": "human", "phase": "TEST", "human_groundtruth": "human", "real_gender": "male", "response_gender": "male"}}, "Trial_128": {"workerID": "A3R0S4QK7VY0QA", "workerData": {"country": "United States", "age": "21-25", "engagement": "4", "difficulty": "7", "mode": "live", "gender": "female", "education": "bachelor", "condition": 0, "native": "yes"}, "trialData": {"rt": 4367, "hit": "participant_54", "trial": 38, "response_speaker": "machine", "machine_groundtruth": "", "imageID": 54, "caption": "absent", "counterbalance": 0, "groundtruth": "human", "phase": "TEST", "human_groundtruth": "human", "real_gender": "male", "response_gender": "female"}}, "Trial_129": {"workerID": "A3R0S4QK7VY0QA", "workerData": {"country": "United States", "age": "21-25", "engagement": "4", "difficulty": "7", "mode": "live", "gender": "female", "education": "bachelor", "condition": 0, "native": "yes"}, "trialData": {"rt": 34753, "hit": "participant_101", "trial": 39, "response_speaker": "human", "machine_groundtruth": "", "imageID": 101, "caption": "expose", "counterbalance": 0, "groundtruth": "human", "phase": "TEST", "human_groundtruth": "human", "real_gender": "male", "response_gender": "female"}}, "Trial_130": {"workerID": "A3R0S4QK7VY0QA", "workerData": {"country": "United States", "age": "21-25", "engagement": "4", "difficulty": "7", "mode": "live", "gender": "female", "education": "bachelor", "condition": 0, "native": "yes"}, "trialData": {"rt": 6039, "hit": "participant_53", "trial": 40, "response_speaker": "human", "machine_groundtruth": "word2vec", "imageID": 53, "caption": "stanford", "counterbalance": 0, "groundtruth": "machine", "phase": "TEST", "human_groundtruth": "", "real_gender": "", "response_gender": "female"}}, "Trial_131": {"workerID": "A3R0S4QK7VY0QA", "workerData": {"country": "United States", "age": "21-25", "engagement": "4", "difficulty": "7", "mode": "live", "gender": "female", "education": "bachelor", "condition": 0, "native": "yes"}, "trialData": {"rt": 534370, "hit": "participant_141", "trial": 41, "response_speaker": "human", "machine_groundtruth": "", "imageID": 141, "caption": "kindred", "counterbalance": 0, "groundtruth": "human", "phase": "TEST", "human_groundtruth": "human", "real_gender": "male", "response_gender": "female"}}, "Trial_132": {"workerID": "A3R0S4QK7VY0QA", "workerData": {"country": "United States", "age": "21-25", "engagement": "4", "difficulty": "7", "mode": "live", "gender": "female", "education": "bachelor", "condition": 0, "native": "yes"}, "trialData": {"rt": 5343, "hit": "participant_144", "trial": 44, "response_speaker": "machine", "machine_groundtruth": "gpt3 (prompt davinvci)", "imageID": 144, "caption": "hatred", "counterbalance": 0, "groundtruth": "machine", "phase": "TEST", "human_groundtruth": "", "real_gender": "", "response_gender": "male"}}, "Trial_133": {"workerID": "A3R0S4QK7VY0QA", "workerData": {"country": "United States", "age": "21-25", "engagement": "4", "difficulty": "7", "mode": "live", "gender": "female", "education": "bachelor", "condition": 0, "native": "yes"}, "trialData": {"rt": 18265, "hit": "participant_136", "trial": 45, "response_speaker": "human", "machine_groundtruth": "gpt3 (prompt curie)", "imageID": 136, "caption": "sacred", "counterbalance": 0, "groundtruth": "machine", "phase": "TEST", "human_groundtruth": "", "real_gender": "", "response_gender": "female"}}, "Trial_134": {"workerID": "A3R0S4QK7VY0QA", "workerData": {"country": "United States", "age": "21-25", "engagement": "4", "difficulty": "7", "mode": "live", "gender": "female", "education": "bachelor", "condition": 0, "native": "yes"}, "trialData": {"rt": 44117, "hit": "participant_91", "trial": 46, "response_speaker": "human", "machine_groundtruth": "", "imageID": 91, "caption": "brighton", "counterbalance": 0, "groundtruth": "human", "phase": "TEST", "human_groundtruth": "human", "real_gender": "female", "response_gender": "female"}}, "Trial_135": {"workerID": "A3R0S4QK7VY0QA", "workerData": {"country": "United States", "age": "21-25", "engagement": "4", "difficulty": "7", "mode": "live", "gender": "female", "education": "bachelor", "condition": 0, "native": "yes"}, "trialData": {"rt": 4681, "hit": "participant_92", "trial": 50, "response_speaker": "machine", "machine_groundtruth": "gpt3 (prompt davinvci)", "imageID": 92, "caption": "constitute", "counterbalance": 0, "groundtruth": "machine", "phase": "TEST", "human_groundtruth": "", "real_gender": "", "response_gender": "male"}}, "Trial_136": {"workerID": "A39ES76IF6KQ1R", "workerData": {"country": "United States", "age": "45-50", "engagement": "10", "difficulty": "3", "mode": "live", "gender": "female", "education": "bachelor", "condition": 0, "native": "yes"}, "trialData": {"rt": 26153, "hit": "participant_112", "trial": 1, "response_speaker": "human", "machine_groundtruth": "gpt3 (prompt davinvci)", "imageID": 112, "caption": "develop", "counterbalance": 0, "groundtruth": "machine", "phase": "TEST", "human_groundtruth": "", "real_gender": "", "response_gender": "female"}}, "Trial_137": {"workerID": "A39ES76IF6KQ1R", "workerData": {"country": "United States", "age": "45-50", "engagement": "10", "difficulty": "3", "mode": "live", "gender": "female", "education": "bachelor", "condition": 0, "native": "yes"}, "trialData": {"rt": 9708, "hit": "participant_85", "trial": 3, "response_speaker": "human", "machine_groundtruth": "gpt3 (prompt davinvci)", "imageID": 85, "caption": "distinguish", "counterbalance": 0, "groundtruth": "machine", "phase": "TEST", "human_groundtruth": "", "real_gender": "", "response_gender": "male"}}, "Trial_138": {"workerID": "A39ES76IF6KQ1R", "workerData": {"country": "United States", "age": "45-50", "engagement": "10", "difficulty": "3", "mode": "live", "gender": "female", "education": "bachelor", "condition": 0, "native": "yes"}, "trialData": {"rt": 10060, "hit": "participant_60", "trial": 4, "response_speaker": "human", "machine_groundtruth": "gpt3 (embedding)", "imageID": 60, "caption": "revelation", "counterbalance": 0, "groundtruth": "machine", "phase": "TEST", "human_groundtruth": "", "real_gender": "", "response_gender": "female"}}, "Trial_139": {"workerID": "A39ES76IF6KQ1R", "workerData": {"country": "United States", "age": "45-50", "engagement": "10", "difficulty": "3", "mode": "live", "gender": "female", "education": "bachelor", "condition": 0, "native": "yes"}, "trialData": {"rt": 20858, "hit": "participant_110", "trial": 9, "response_speaker": "machine", "machine_groundtruth": "gpt2", "imageID": 110, "caption": "improve", "counterbalance": 0, "groundtruth": "machine", "phase": "TEST", "human_groundtruth": "", "real_gender": "", "response_gender": "male"}}, "Trial_140": {"workerID": "A39ES76IF6KQ1R", "workerData": {"country": "United States", "age": "45-50", "engagement": "10", "difficulty": "3", "mode": "live", "gender": "female", "education": "bachelor", "condition": 0, "native": "yes"}, "trialData": {"rt": 15044, "hit": "participant_79", "trial": 11, "response_speaker": "human", "machine_groundtruth": "gpt2", "imageID": 79, "caption": "blunt", "counterbalance": 0, "groundtruth": "machine", "phase": "TEST", "human_groundtruth": "", "real_gender": "", "response_gender": "male"}}, "Trial_141": {"workerID": "A39ES76IF6KQ1R", "workerData": {"country": "United States", "age": "45-50", "engagement": "10", "difficulty": "3", "mode": "live", "gender": "female", "education": "bachelor", "condition": 0, "native": "yes"}, "trialData": {"rt": 10348, "hit": "participant_0", "trial": 12, "response_speaker": "machine", "machine_groundtruth": "", "imageID": 0, "caption": "memorable", "counterbalance": 0, "groundtruth": "human", "phase": "TEST", "human_groundtruth": "human", "real_gender": "female", "response_gender": "male"}}, "Trial_142": {"workerID": "A39ES76IF6KQ1R", "workerData": {"country": "United States", "age": "45-50", "engagement": "10", "difficulty": "3", "mode": "live", "gender": "female", "education": "bachelor", "condition": 0, "native": "yes"}, "trialData": {"rt": 34259, "hit": "participant_119", "trial": 14, "response_speaker": "machine", "machine_groundtruth": "gpt3 (prompt davinvci)", "imageID": 119, "caption": "assume", "counterbalance": 0, "groundtruth": "machine", "phase": "TEST", "human_groundtruth": "", "real_gender": "", "response_gender": "female"}}, "Trial_143": {"workerID": "A39ES76IF6KQ1R", "workerData": {"country": "United States", "age": "45-50", "engagement": "10", "difficulty": "3", "mode": "live", "gender": "female", "education": "bachelor", "condition": 0, "native": "yes"}, "trialData": {"rt": 8653, "hit": "participant_46", "trial": 15, "response_speaker": "machine", "machine_groundtruth": "gpt3 (embedding)", "imageID": 46, "caption": "able", "counterbalance": 0, "groundtruth": "machine", "phase": "TEST", "human_groundtruth": "", "real_gender": "", "response_gender": "female"}}, "Trial_144": {"workerID": "A39ES76IF6KQ1R", "workerData": {"country": "United States", "age": "45-50", "engagement": "10", "difficulty": "3", "mode": "live", "gender": "female", "education": "bachelor", "condition": 0, "native": "yes"}, "trialData": {"rt": 13670, "hit": "participant_91", "trial": 16, "response_speaker": "machine", "machine_groundtruth": "gpt3 (prompt davinvci)", "imageID": 91, "caption": "brighton", "counterbalance": 0, "groundtruth": "machine", "phase": "TEST", "human_groundtruth": "", "real_gender": "", "response_gender": "female"}}, "Trial_145": {"workerID": "A39ES76IF6KQ1R", "workerData": {"country": "United States", "age": "45-50", "engagement": "10", "difficulty": "3", "mode": "live", "gender": "female", "education": "bachelor", "condition": 0, "native": "yes"}, "trialData": {"rt": 20764, "hit": "participant_74", "trial": 18, "response_speaker": "human", "machine_groundtruth": "gpt2", "imageID": 74, "caption": "nixon", "counterbalance": 0, "groundtruth": "machine", "phase": "TEST", "human_groundtruth": "", "real_gender": "", "response_gender": "male"}}, "Trial_146": {"workerID": "A39ES76IF6KQ1R", "workerData": {"country": "United States", "age": "45-50", "engagement": "10", "difficulty": "3", "mode": "live", "gender": "female", "education": "bachelor", "condition": 0, "native": "yes"}, "trialData": {"rt": 7128, "hit": "participant_63", "trial": 19, "response_speaker": "human", "machine_groundtruth": "gpt2", "imageID": 63, "caption": "material", "counterbalance": 0, "groundtruth": "machine", "phase": "TEST", "human_groundtruth": "", "real_gender": "", "response_gender": "male"}}, "Trial_147": {"workerID": "A39ES76IF6KQ1R", "workerData": {"country": "United States", "age": "45-50", "engagement": "10", "difficulty": "3", "mode": "live", "gender": "female", "education": "bachelor", "condition": 0, "native": "yes"}, "trialData": {"rt": 9757, "hit": "participant_67", "trial": 20, "response_speaker": "human", "machine_groundtruth": "", "imageID": 67, "caption": "dodge", "counterbalance": 0, "groundtruth": "human", "phase": "TEST", "human_groundtruth": "human", "real_gender": "female", "response_gender": "male"}}, "Trial_148": {"workerID": "A39ES76IF6KQ1R", "workerData": {"country": "United States", "age": "45-50", "engagement": "10", "difficulty": "3", "mode": "live", "gender": "female", "education": "bachelor", "condition": 0, "native": "yes"}, "trialData": {"rt": 9560, "hit": "participant_53", "trial": 21, "response_speaker": "machine", "machine_groundtruth": "", "imageID": 53, "caption": "stanford", "counterbalance": 0, "groundtruth": "human", "phase": "TEST", "human_groundtruth": "human", "real_gender": "male", "response_gender": "female"}}, "Trial_149": {"workerID": "A39ES76IF6KQ1R", "workerData": {"country": "United States", "age": "45-50", "engagement": "10", "difficulty": "3", "mode": "live", "gender": "female", "education": "bachelor", "condition": 0, "native": "yes"}, "trialData": {"rt": 12306, "hit": "participant_44", "trial": 22, "response_speaker": "machine", "machine_groundtruth": "", "imageID": 44, "caption": "synaptic", "counterbalance": 0, "groundtruth": "human", "phase": "TEST", "human_groundtruth": "human", "real_gender": "female", "response_gender": "female"}}, "Trial_150": {"workerID": "A39ES76IF6KQ1R", "workerData": {"country": "United States", "age": "45-50", "engagement": "10", "difficulty": "3", "mode": "live", "gender": "female", "education": "bachelor", "condition": 0, "native": "yes"}, "trialData": {"rt": 11330, "hit": "participant_92", "trial": 23, "response_speaker": "machine", "machine_groundtruth": "word2vec", "imageID": 92, "caption": "constitute", "counterbalance": 0, "groundtruth": "machine", "phase": "TEST", "human_groundtruth": "", "real_gender": "", "response_gender": "female"}}, "Trial_151": {"workerID": "A39ES76IF6KQ1R", "workerData": {"country": "United States", "age": "45-50", "engagement": "10", "difficulty": "3", "mode": "live", "gender": "female", "education": "bachelor", "condition": 0, "native": "yes"}, "trialData": {"rt": 110024, "hit": "participant_9", "trial": 25, "response_speaker": "machine", "machine_groundtruth": "gpt3 (embedding)", "imageID": 9, "caption": "oriental", "counterbalance": 0, "groundtruth": "machine", "phase": "TEST", "human_groundtruth": "", "real_gender": "", "response_gender": "female"}}, "Trial_152": {"workerID": "A39ES76IF6KQ1R", "workerData": {"country": "United States", "age": "45-50", "engagement": "10", "difficulty": "3", "mode": "live", "gender": "female", "education": "bachelor", "condition": 0, "native": "yes"}, "trialData": {"rt": 10547, "hit": "participant_59", "trial": 26, "response_speaker": "human", "machine_groundtruth": "gpt3 (embedding)", "imageID": 59, "caption": "curry", "counterbalance": 0, "groundtruth": "machine", "phase": "TEST", "human_groundtruth": "", "real_gender": "", "response_gender": "male"}}, "Trial_153": {"workerID": "A39ES76IF6KQ1R", "workerData": {"country": "United States", "age": "45-50", "engagement": "10", "difficulty": "3", "mode": "live", "gender": "female", "education": "bachelor", "condition": 0, "native": "yes"}, "trialData": {"rt": 45104, "hit": "participant_38", "trial": 27, "response_speaker": "machine", "machine_groundtruth": "", "imageID": 38, "caption": "mammalian", "counterbalance": 0, "groundtruth": "human", "phase": "TEST", "human_groundtruth": "human", "real_gender": "male", "response_gender": "female"}}, "Trial_154": {"workerID": "A39ES76IF6KQ1R", "workerData": {"country": "United States", "age": "45-50", "engagement": "10", "difficulty": "3", "mode": "live", "gender": "female", "education": "bachelor", "condition": 0, "native": "yes"}, "trialData": {"rt": 46048, "hit": "participant_101", "trial": 28, "response_speaker": "human", "machine_groundtruth": "", "imageID": 101, "caption": "expose", "counterbalance": 0, "groundtruth": "human", "phase": "TEST", "human_groundtruth": "human", "real_gender": "female", "response_gender": "male"}}, "Trial_155": {"workerID": "A39ES76IF6KQ1R", "workerData": {"country": "United States", "age": "45-50", "engagement": "10", "difficulty": "3", "mode": "live", "gender": "female", "education": "bachelor", "condition": 0, "native": "yes"}, "trialData": {"rt": 14988, "hit": "participant_132", "trial": 31, "response_speaker": "human", "machine_groundtruth": "word2vec", "imageID": 132, "caption": "succeed", "counterbalance": 0, "groundtruth": "machine", "phase": "TEST", "human_groundtruth": "", "real_gender": "", "response_gender": "male"}}, "Trial_156": {"workerID": "A39ES76IF6KQ1R", "workerData": {"country": "United States", "age": "45-50", "engagement": "10", "difficulty": "3", "mode": "live", "gender": "female", "education": "bachelor", "condition": 0, "native": "yes"}, "trialData": {"rt": 6758, "hit": "participant_149", "trial": 32, "response_speaker": "machine", "machine_groundtruth": "", "imageID": 149, "caption": "come", "counterbalance": 0, "groundtruth": "human", "phase": "TEST", "human_groundtruth": "human", "real_gender": "female", "response_gender": "female"}}, "Trial_157": {"workerID": "A39ES76IF6KQ1R", "workerData": {"country": "United States", "age": "45-50", "engagement": "10", "difficulty": "3", "mode": "live", "gender": "female", "education": "bachelor", "condition": 0, "native": "yes"}, "trialData": {"rt": 34922, "hit": "participant_97", "trial": 34, "response_speaker": "human", "machine_groundtruth": "gpt2", "imageID": 97, "caption": "entertain", "counterbalance": 0, "groundtruth": "machine", "phase": "TEST", "human_groundtruth": "", "real_gender": "", "response_gender": "male"}}, "Trial_158": {"workerID": "A39ES76IF6KQ1R", "workerData": {"country": "United States", "age": "45-50", "engagement": "10", "difficulty": "3", "mode": "live", "gender": "female", "education": "bachelor", "condition": 0, "native": "yes"}, "trialData": {"rt": 5717, "hit": "participant_5", "trial": 35, "response_speaker": "machine", "machine_groundtruth": "gpt2", "imageID": 5, "caption": "nepal", "counterbalance": 0, "groundtruth": "machine", "phase": "TEST", "human_groundtruth": "", "real_gender": "", "response_gender": "female"}}, "Trial_159": {"workerID": "A39ES76IF6KQ1R", "workerData": {"country": "United States", "age": "45-50", "engagement": "10", "difficulty": "3", "mode": "live", "gender": "female", "education": "bachelor", "condition": 0, "native": "yes"}, "trialData": {"rt": 8909, "hit": "participant_111", "trial": 36, "response_speaker": "machine", "machine_groundtruth": "gpt2", "imageID": 111, "caption": "ping", "counterbalance": 0, "groundtruth": "machine", "phase": "TEST", "human_groundtruth": "", "real_gender": "", "response_gender": "female"}}, "Trial_160": {"workerID": "A39ES76IF6KQ1R", "workerData": {"country": "United States", "age": "45-50", "engagement": "10", "difficulty": "3", "mode": "live", "gender": "female", "education": "bachelor", "condition": 0, "native": "yes"}, "trialData": {"rt": 500634, "hit": "participant_145", "trial": 37, "response_speaker": "human", "machine_groundtruth": "", "imageID": 145, "caption": "have", "counterbalance": 0, "groundtruth": "human", "phase": "TEST", "human_groundtruth": "human", "real_gender": "female", "response_gender": "male"}}, "Trial_161": {"workerID": "A39ES76IF6KQ1R", "workerData": {"country": "United States", "age": "45-50", "engagement": "10", "difficulty": "3", "mode": "live", "gender": "female", "education": "bachelor", "condition": 0, "native": "yes"}, "trialData": {"rt": 49427, "hit": "participant_62", "trial": 38, "response_speaker": "human", "machine_groundtruth": "", "imageID": 62, "caption": "mainland", "counterbalance": 0, "groundtruth": "human", "phase": "TEST", "human_groundtruth": "human", "real_gender": "female", "response_gender": "male"}}, "Trial_162": {"workerID": "A39ES76IF6KQ1R", "workerData": {"country": "United States", "age": "45-50", "engagement": "10", "difficulty": "3", "mode": "live", "gender": "female", "education": "bachelor", "condition": 0, "native": "yes"}, "trialData": {"rt": 34859, "hit": "participant_39", "trial": 39, "response_speaker": "human", "machine_groundtruth": "gpt3 (embedding)", "imageID": 39, "caption": "revolutionary", "counterbalance": 0, "groundtruth": "machine", "phase": "TEST", "human_groundtruth": "", "real_gender": "", "response_gender": "male"}}, "Trial_163": {"workerID": "A39ES76IF6KQ1R", "workerData": {"country": "United States", "age": "45-50", "engagement": "10", "difficulty": "3", "mode": "live", "gender": "female", "education": "bachelor", "condition": 0, "native": "yes"}, "trialData": {"rt": 35888, "hit": "participant_21", "trial": 40, "response_speaker": "human", "machine_groundtruth": "word2vec", "imageID": 21, "caption": "presidential", "counterbalance": 0, "groundtruth": "machine", "phase": "TEST", "human_groundtruth": "", "real_gender": "", "response_gender": "male"}}, "Trial_164": {"workerID": "A39ES76IF6KQ1R", "workerData": {"country": "United States", "age": "45-50", "engagement": "10", "difficulty": "3", "mode": "live", "gender": "female", "education": "bachelor", "condition": 0, "native": "yes"}, "trialData": {"rt": 6000, "hit": "participant_113", "trial": 41, "response_speaker": "machine", "machine_groundtruth": "", "imageID": 113, "caption": "reduce", "counterbalance": 0, "groundtruth": "human", "phase": "TEST", "human_groundtruth": "human", "real_gender": "female", "response_gender": "female"}}, "Trial_165": {"workerID": "A39ES76IF6KQ1R", "workerData": {"country": "United States", "age": "45-50", "engagement": "10", "difficulty": "3", "mode": "live", "gender": "female", "education": "bachelor", "condition": 0, "native": "yes"}, "trialData": {"rt": 8979, "hit": "participant_78", "trial": 42, "response_speaker": "human", "machine_groundtruth": "", "imageID": 78, "caption": "peanut", "counterbalance": 0, "groundtruth": "human", "phase": "TEST", "human_groundtruth": "human", "real_gender": "male", "response_gender": "male"}}, "Trial_166": {"workerID": "A39ES76IF6KQ1R", "workerData": {"country": "United States", "age": "45-50", "engagement": "10", "difficulty": "3", "mode": "live", "gender": "female", "education": "bachelor", "condition": 0, "native": "yes"}, "trialData": {"rt": 10227, "hit": "participant_30", "trial": 43, "response_speaker": "human", "machine_groundtruth": "gpt3 (prompt davinvci)", "imageID": 30, "caption": "ingenious", "counterbalance": 0, "groundtruth": "machine", "phase": "TEST", "human_groundtruth": "", "real_gender": "", "response_gender": "male"}}, "Trial_167": {"workerID": "AE2VPQ86DH4W5", "workerData": {"country": "United States", "age": "26-30", "engagement": "3", "difficulty": "8", "mode": "live", "gender": "male", "education": "bachelor", "condition": 0, "native": "yes"}, "trialData": {"rt": 6503, "hit": "participant_97", "trial": 6, "response_speaker": "machine", "machine_groundtruth": "", "imageID": 97, "caption": "entertain", "counterbalance": 0, "groundtruth": "human", "phase": "TEST", "human_groundtruth": "human", "real_gender": "female", "response_gender": "female"}}, "Trial_168": {"workerID": "AE2VPQ86DH4W5", "workerData": {"country": "United States", "age": "26-30", "engagement": "3", "difficulty": "8", "mode": "live", "gender": "male", "education": "bachelor", "condition": 0, "native": "yes"}, "trialData": {"rt": 5983, "hit": "participant_53", "trial": 7, "response_speaker": "human", "machine_groundtruth": "gpt2", "imageID": 53, "caption": "stanford", "counterbalance": 0, "groundtruth": "machine", "phase": "TEST", "human_groundtruth": "", "real_gender": "", "response_gender": "female"}}, "Trial_169": {"workerID": "AE2VPQ86DH4W5", "workerData": {"country": "United States", "age": "26-30", "engagement": "3", "difficulty": "8", "mode": "live", "gender": "male", "education": "bachelor", "condition": 0, "native": "yes"}, "trialData": {"rt": 8031, "hit": "participant_58", "trial": 8, "response_speaker": "machine", "machine_groundtruth": "", "imageID": 58, "caption": "dame", "counterbalance": 0, "groundtruth": "human", "phase": "TEST", "human_groundtruth": "human", "real_gender": "female", "response_gender": "female"}}, "Trial_170": {"workerID": "AE2VPQ86DH4W5", "workerData": {"country": "United States", "age": "26-30", "engagement": "3", "difficulty": "8", "mode": "live", "gender": "male", "education": "bachelor", "condition": 0, "native": "yes"}, "trialData": {"rt": 8447, "hit": "participant_69", "trial": 10, "response_speaker": "machine", "machine_groundtruth": "", "imageID": 69, "caption": "cancer", "counterbalance": 0, "groundtruth": "human", "phase": "TEST", "human_groundtruth": "human", "real_gender": "male", "response_gender": "female"}}, "Trial_171": {"workerID": "AE2VPQ86DH4W5", "workerData": {"country": "United States", "age": "26-30", "engagement": "3", "difficulty": "8", "mode": "live", "gender": "male", "education": "bachelor", "condition": 0, "native": "yes"}, "trialData": {"rt": 3394, "hit": "participant_138", "trial": 12, "response_speaker": "human", "machine_groundtruth": "word2vec", "imageID": 138, "caption": "enclave", "counterbalance": 0, "groundtruth": "machine", "phase": "TEST", "human_groundtruth": "", "real_gender": "", "response_gender": "female"}}, "Trial_172": {"workerID": "AE2VPQ86DH4W5", "workerData": {"country": "United States", "age": "26-30", "engagement": "3", "difficulty": "8", "mode": "live", "gender": "male", "education": "bachelor", "condition": 0, "native": "yes"}, "trialData": {"rt": 4189, "hit": "participant_119", "trial": 13, "response_speaker": "machine", "machine_groundtruth": "gpt2", "imageID": 119, "caption": "assume", "counterbalance": 0, "groundtruth": "machine", "phase": "TEST", "human_groundtruth": "", "real_gender": "", "response_gender": "female"}}, "Trial_173": {"workerID": "AE2VPQ86DH4W5", "workerData": {"country": "United States", "age": "26-30", "engagement": "3", "difficulty": "8", "mode": "live", "gender": "male", "education": "bachelor", "condition": 0, "native": "yes"}, "trialData": {"rt": 2744, "hit": "participant_90", "trial": 14, "response_speaker": "machine", "machine_groundtruth": "gpt3 (prompt davinvci)", "imageID": 90, "caption": "maid", "counterbalance": 0, "groundtruth": "machine", "phase": "TEST", "human_groundtruth": "", "real_gender": "", "response_gender": "male"}}, "Trial_174": {"workerID": "AE2VPQ86DH4W5", "workerData": {"country": "United States", "age": "26-30", "engagement": "3", "difficulty": "8", "mode": "live", "gender": "male", "education": "bachelor", "condition": 0, "native": "yes"}, "trialData": {"rt": 3544, "hit": "participant_125", "trial": 15, "response_speaker": "human", "machine_groundtruth": "", "imageID": 125, "caption": "establish", "counterbalance": 0, "groundtruth": "human", "phase": "TEST", "human_groundtruth": "human", "real_gender": "female", "response_gender": "female"}}, "Trial_175": {"workerID": "AE2VPQ86DH4W5", "workerData": {"country": "United States", "age": "26-30", "engagement": "3", "difficulty": "8", "mode": "live", "gender": "male", "education": "bachelor", "condition": 0, "native": "yes"}, "trialData": {"rt": 3808, "hit": "participant_111", "trial": 18, "response_speaker": "machine", "machine_groundtruth": "gpt3 (embedding)", "imageID": 111, "caption": "ping", "counterbalance": 0, "groundtruth": "machine", "phase": "TEST", "human_groundtruth": "", "real_gender": "", "response_gender": "female"}}, "Trial_176": {"workerID": "AE2VPQ86DH4W5", "workerData": {"country": "United States", "age": "26-30", "engagement": "3", "difficulty": "8", "mode": "live", "gender": "male", "education": "bachelor", "condition": 0, "native": "yes"}, "trialData": {"rt": 6199, "hit": "participant_123", "trial": 24, "response_speaker": "human", "machine_groundtruth": "gpt3 (prompt curie)", "imageID": 123, "caption": "watershed", "counterbalance": 0, "groundtruth": "machine", "phase": "TEST", "human_groundtruth": "", "real_gender": "", "response_gender": "female"}}, "Trial_177": {"workerID": "AE2VPQ86DH4W5", "workerData": {"country": "United States", "age": "26-30", "engagement": "3", "difficulty": "8", "mode": "live", "gender": "male", "education": "bachelor", "condition": 0, "native": "yes"}, "trialData": {"rt": 4183, "hit": "participant_67", "trial": 25, "response_speaker": "machine", "machine_groundtruth": "", "imageID": 67, "caption": "dodge", "counterbalance": 0, "groundtruth": "human", "phase": "TEST", "human_groundtruth": "human", "real_gender": "female", "response_gender": "female"}}, "Trial_178": {"workerID": "AE2VPQ86DH4W5", "workerData": {"country": "United States", "age": "26-30", "engagement": "3", "difficulty": "8", "mode": "live", "gender": "male", "education": "bachelor", "condition": 0, "native": "yes"}, "trialData": {"rt": 3753, "hit": "participant_145", "trial": 26, "response_speaker": "human", "machine_groundtruth": "gpt2", "imageID": 145, "caption": "have", "counterbalance": 0, "groundtruth": "machine", "phase": "TEST", "human_groundtruth": "", "real_gender": "", "response_gender": "female"}}, "Trial_179": {"workerID": "AE2VPQ86DH4W5", "workerData": {"country": "United States", "age": "26-30", "engagement": "3", "difficulty": "8", "mode": "live", "gender": "male", "education": "bachelor", "condition": 0, "native": "yes"}, "trialData": {"rt": 10191, "hit": "participant_139", "trial": 27, "response_speaker": "machine", "machine_groundtruth": "gpt3 (prompt curie)", "imageID": 139, "caption": "deepen", "counterbalance": 0, "groundtruth": "machine", "phase": "TEST", "human_groundtruth": "", "real_gender": "", "response_gender": "female"}}, "Trial_180": {"workerID": "AE2VPQ86DH4W5", "workerData": {"country": "United States", "age": "26-30", "engagement": "3", "difficulty": "8", "mode": "live", "gender": "male", "education": "bachelor", "condition": 0, "native": "yes"}, "trialData": {"rt": 6527, "hit": "participant_43", "trial": 28, "response_speaker": "human", "machine_groundtruth": "", "imageID": 43, "caption": "nationwide", "counterbalance": 0, "groundtruth": "human", "phase": "TEST", "human_groundtruth": "human", "real_gender": "male", "response_gender": "female"}}, "Trial_181": {"workerID": "AE2VPQ86DH4W5", "workerData": {"country": "United States", "age": "26-30", "engagement": "3", "difficulty": "8", "mode": "live", "gender": "male", "education": "bachelor", "condition": 0, "native": "yes"}, "trialData": {"rt": 3558, "hit": "participant_136", "trial": 29, "response_speaker": "machine", "machine_groundtruth": "", "imageID": 136, "caption": "sacred", "counterbalance": 0, "groundtruth": "human", "phase": "TEST", "human_groundtruth": "human", "real_gender": "male", "response_gender": "male"}}, "Trial_182": {"workerID": "AE2VPQ86DH4W5", "workerData": {"country": "United States", "age": "26-30", "engagement": "3", "difficulty": "8", "mode": "live", "gender": "male", "education": "bachelor", "condition": 0, "native": "yes"}, "trialData": {"rt": 4216, "hit": "participant_132", "trial": 30, "response_speaker": "machine", "machine_groundtruth": "gpt3 (embedding)", "imageID": 132, "caption": "succeed", "counterbalance": 0, "groundtruth": "machine", "phase": "TEST", "human_groundtruth": "", "real_gender": "", "response_gender": "female"}}, "Trial_183": {"workerID": "AE2VPQ86DH4W5", "workerData": {"country": "United States", "age": "26-30", "engagement": "3", "difficulty": "8", "mode": "live", "gender": "male", "education": "bachelor", "condition": 0, "native": "yes"}, "trialData": {"rt": 4248, "hit": "participant_52", "trial": 31, "response_speaker": "machine", "machine_groundtruth": "gpt3 (prompt curie)", "imageID": 52, "caption": "negotiate", "counterbalance": 0, "groundtruth": "machine", "phase": "TEST", "human_groundtruth": "", "real_gender": "", "response_gender": "female"}}, "Trial_184": {"workerID": "AE2VPQ86DH4W5", "workerData": {"country": "United States", "age": "26-30", "engagement": "3", "difficulty": "8", "mode": "live", "gender": "male", "education": "bachelor", "condition": 0, "native": "yes"}, "trialData": {"rt": 3694, "hit": "participant_21", "trial": 32, "response_speaker": "human", "machine_groundtruth": "", "imageID": 21, "caption": "presidential", "counterbalance": 0, "groundtruth": "human", "phase": "TEST", "human_groundtruth": "human", "real_gender": "male", "response_gender": "female"}}, "Trial_185": {"workerID": "AE2VPQ86DH4W5", "workerData": {"country": "United States", "age": "26-30", "engagement": "3", "difficulty": "8", "mode": "live", "gender": "male", "education": "bachelor", "condition": 0, "native": "yes"}, "trialData": {"rt": 5326, "hit": "participant_92", "trial": 33, "response_speaker": "machine", "machine_groundtruth": "", "imageID": 92, "caption": "constitute", "counterbalance": 0, "groundtruth": "human", "phase": "TEST", "human_groundtruth": "human", "real_gender": "female", "response_gender": "female"}}, "Trial_186": {"workerID": "AE2VPQ86DH4W5", "workerData": 