{"mturk": {"Trial_1": {"workerID": "A1MJVTR0PCKBWW", "workerData": {"country": "United States", "age": "26-30", "engagement": "8", "difficulty": "5", "mode": "live", "gender": "female", "education": "bachelor", "condition": 0, "native": "yes"}, "trialData": {"rt": 10834, "hit": "867", "trial": 1, "response_speaker": "machine", "machine_groundtruth": "", "imageID": "static/dataset/coco_val_set/867.jpg", "page_name": "867_a_0.html/", "counterbalance": 0, "groundtruth": "human", "human_groundtruth": "human", "response_gender": "female"}}, "Trial_2": {"workerID": "A1MJVTR0PCKBWW", "workerData": {"country": "United States", "age": "26-30", "engagement": "8", "difficulty": "5", "mode": "live", "gender": "female", "education": "bachelor", "condition": 0, "native": "yes"}, "trialData": {"rt": 13542, "hit": "606", "trial": 2, "response_speaker": "machine", "machine_groundtruth": "", "imageID": "static/dataset/coco_val_set/606.jpg", "page_name": "606_a_0.html/", "counterbalance": 0, "groundtruth": "human", "human_groundtruth": "human", "response_gender": "female"}}, "Trial_3": {"workerID": "A1MJVTR0PCKBWW", "workerData": {"country": "United States", "age": "26-30", "engagement": "8", "difficulty": "5", "mode": "live", "gender": "female", "education": "bachelor", "condition": 0, "native": "yes"}, "trialData": {"rt": 12888, "hit": "450", "trial": 3, "response_speaker": "machine", "machine_groundtruth": "detectron", "imageID": "static/dataset/coco_val_set/450.jpg", "page_name": "450_c_0.html/", "counterbalance": 0, "groundtruth": "machine", "human_groundtruth": "", "response_gender": "female"}}, "Trial_4": {"workerID": "A1MJVTR0PCKBWW", "workerData": {"country": "United States", "age": "26-30", "engagement": "8", "difficulty": "5", "mode": "live", "gender": "female", "education": "bachelor", "condition": 0, "native": "yes"}, "trialData": {"rt": 6398, "hit": "4355", "trial": 4, "response_speaker": "machine", "machine_groundtruth": "azure", "imageID": "static/dataset/coco_val_set/4355.jpg", "page_name": "4355_b_0.html/", "counterbalance": 0, "groundtruth": "machine", "human_groundtruth": "", "response_gender": "female"}}, "Trial_6": {"workerID": "A1MJVTR0PCKBWW", "workerData": {"country": "United States", "age": "26-30", "engagement": "8", "difficulty": "5", "mode": "live", "gender": "female", "education": "bachelor", "condition": 0, "native": "yes"}, "trialData": {"rt": 8720, "hit": "236", "trial": 6, "response_speaker": "machine", "machine_groundtruth": "", "imageID": "static/dataset/coco_val_set/236.jpg", "page_name": "236_a_0.html/", "counterbalance": 0, "groundtruth": "human", "human_groundtruth": "human", "response_gender": "female"}}, "Trial_8": {"workerID": "A1MJVTR0PCKBWW", "workerData": {"country": "United States", "age": "26-30", "engagement": "8", "difficulty": "5", "mode": "live", "gender": "female", "education": "bachelor", "condition": 0, "native": "yes"}, "trialData": {"rt": 17436, "hit": "991", "trial": 8, "response_speaker": "machine", "machine_groundtruth": "google", "imageID": "static/dataset/coco_val_set/991.jpg", "page_name": "991_d_0.html/", "counterbalance": 0, "groundtruth": "machine", "human_groundtruth": "", "response_gender": "female"}}, "Trial_9": {"workerID": "A1MJVTR0PCKBWW", "workerData": {"country": "United States", "age": "26-30", "engagement": "8", "difficulty": "5", "mode": "live", "gender": "female", "education": "bachelor", "condition": 0, "native": "yes"}, "trialData": {"rt": 11929, "hit": "202", "trial": 9, "response_speaker": "machine", "machine_groundtruth": "detectron", "imageID": "static/dataset/coco_val_set/202.jpg", "page_name": "202_c_0.html/", "counterbalance": 0, "groundtruth": "machine", "human_groundtruth": "", "response_gender": "female"}}, "Trial_10": {"workerID": "A1MJVTR0PCKBWW", "workerData": {"country": "United States", "age": "26-30", "engagement": "8", "difficulty": "5", "mode": "live", "gender": "female", "education": "bachelor", "condition": 0, "native": "yes"}, "trialData": {"rt": 9444, "hit": "99", "trial": 10, "response_speaker": "machine", "machine_groundtruth": "azure", "imageID": "static/dataset/coco_val_set/99.jpg", "page_name": "99_b_0.html/", "counterbalance": 0, "groundtruth": "machine", "human_groundtruth": "", "response_gender": "female"}}, "Trial_11": {"workerID": "A1MJVTR0PCKBWW", "workerData": {"country": "United States", "age": "26-30", "engagement": "8", "difficulty": "5", "mode": "live", "gender": "female", "education": "bachelor", "condition": 0, "native": "yes"}, "trialData": {"rt": 11964, "hit": "1284", "trial": 11, "response_speaker": "machine", "machine_groundtruth": "", "imageID": "static/dataset/coco_val_set/1284.jpg", "page_name": "1284_a_0.html/", "counterbalance": 0, "groundtruth": "human", "human_groundtruth": "human", "response_gender": "female"}}, "Trial_13": {"workerID": "A1MJVTR0PCKBWW", "workerData": {"country": "United States", "age": "26-30", "engagement": "8", "difficulty": "5", "mode": "live", "gender": "female", "education": "bachelor", "condition": 0, "native": "yes"}, "trialData": {"rt": 4990, "hit": "575", "trial": 13, "response_speaker": "machine", "machine_groundtruth": "", "imageID": "static/dataset/coco_val_set/575.jpg", "page_name": "575_a_0.html/", "counterbalance": 0, "groundtruth": "human", "human_groundtruth": "human", "response_gender": "female"}}, "Trial_15": {"workerID": "A1MJVTR0PCKBWW", "workerData": {"country": "United States", "age": "26-30", "engagement": "8", "difficulty": "5", "mode": "live", "gender": "female", "education": "bachelor", "condition": 0, "native": "yes"}, "trialData": {"rt": 14991, "hit": "4415", "trial": 15, "response_speaker": "machine", "machine_groundtruth": "rekognition", "imageID": "static/dataset/coco_val_set/4415.jpg", "page_name": "4415_e_0.html/", "counterbalance": 0, "groundtruth": "machine", "human_groundtruth": "", "response_gender": "female"}}, "Trial_16": {"workerID": "A1MJVTR0PCKBWW", "workerData": {"country": "United States", "age": "26-30", "engagement": "8", "difficulty": "5", "mode": "live", "gender": "female", "education": "bachelor", "condition": 0, "native": "yes"}, "trialData": {"rt": 2684, "hit": "76", "trial": 16, "response_speaker": "machine", "machine_groundtruth": "google", "imageID": "static/dataset/coco_val_set/76.jpg", "page_name": "76_d_0.html/", "counterbalance": 0, "groundtruth": "machine", "human_groundtruth": "", "response_gender": "female"}}, "Trial_17": {"workerID": "A1MJVTR0PCKBWW", "workerData": {"country": "United States", "age": "26-30", "engagement": "8", "difficulty": "5", "mode": "live", "gender": "female", "education": "bachelor", "condition": 0, "native": "yes"}, "trialData": {"rt": 3227, "hit": "4896", "trial": 17, "response_speaker": "machine", "machine_groundtruth": "", "imageID": "static/dataset/coco_val_set/4896.jpg", "page_name": "4896_a_0.html/", "counterbalance": 0, "groundtruth": "human", "human_groundtruth": "human", "response_gender": "female"}}, "Trial_18": {"workerID": "A1MJVTR0PCKBWW", "workerData": {"country": "United States", "age": "26-30", "engagement": "8", "difficulty": "5", "mode": "live", "gender": "female", "education": "bachelor", "condition": 0, "native": "yes"}, "trialData": {"rt": 6048, "hit": "4056", "trial": 18, "response_speaker": "machine", "machine_groundtruth": "rekognition", "imageID": "static/dataset/coco_val_set/4056.jpg", "page_name": "4056_e_0.html/", "counterbalance": 0, "groundtruth": "machine", "human_groundtruth": "", "response_gender": "female"}}, "Trial_19": {"workerID": "A1MJVTR0PCKBWW", "workerData": {"country": "United States", "age": "26-30", "engagement": "8", "difficulty": "5", "mode": "live", "gender": "female", "education": "bachelor", "condition": 0, "native": "yes"}, "trialData": {"rt": 16629, "hit": "4334", "trial": 19, "response_speaker": "machine", "machine_groundtruth": "", "imageID": "static/dataset/coco_val_set/4334.jpg", "page_name": "4334_a_0.html/", "counterbalance": 0, "groundtruth": "human", "human_groundtruth": "human", "response_gender": "female"}}, "Trial_20": {"workerID": "A1MJVTR0PCKBWW", "workerData": {"country": "United States", "age": "26-30", "engagement": "8", "difficulty": "5", "mode": "live", "gender": "female", "education": "bachelor", "condition": 0, "native": "yes"}, "trialData": {"rt": 6290, "hit": "1200", "trial": 20, "response_speaker": "machine", "machine_groundtruth": "", "imageID": "static/dataset/coco_val_set/1200.jpg", "page_name": "1200_a_0.html/", "counterbalance": 0, "groundtruth": "human", "human_groundtruth": "human", "response_gender": "female"}}, "Trial_21": {"workerID": "A1MJVTR0PCKBWW", "workerData": {"country": "United States", "age": "26-30", "engagement": "8", "difficulty": "5", "mode": "live", "gender": "female", "education": "bachelor", "condition": 0, "native": "yes"}, "trialData": {"rt": 11190, "hit": "488", "trial": 21, "response_speaker": "machine", "machine_groundtruth": "azure", "imageID": "static/dataset/coco_val_set/488.jpg", "page_name": "488_b_0.html/", "counterbalance": 0, "groundtruth": "machine", "human_groundtruth": "", "response_gender": "female"}}, "Trial_22": {"workerID": "A1MJVTR0PCKBWW", "workerData": {"country": "United States", "age": "26-30", "engagement": "8", "difficulty": "5", "mode": "live", "gender": "female", "education": "bachelor", "condition": 0, "native": "yes"}, "trialData": {"rt": 6051, "hit": "2173", "trial": 22, "response_speaker": "machine", "machine_groundtruth": "", "imageID": "static/dataset/coco_val_set/2173.jpg", "page_name": "2173_a_0.html/", "counterbalance": 0, "groundtruth": "human", "human_groundtruth": "human", "response_gender": "female"}}, "Trial_23": {"workerID": "A1MJVTR0PCKBWW", "workerData": {"country": "United States", "age": "26-30", "engagement": "8", "difficulty": "5", "mode": "live", "gender": "female", "education": "bachelor", "condition": 0, "native": "yes"}, "trialData": {"rt": 39191, "hit": "210", "trial": 23, "response_speaker": "machine", "machine_groundtruth": "", "imageID": "static/dataset/coco_val_set/210.jpg", "page_name": "210_a_0.html/", "counterbalance": 0, "groundtruth": "human", "human_groundtruth": "human", "response_gender": "female"}}, "Trial_24": {"workerID": "A1MJVTR0PCKBWW", "workerData": {"country": "United States", "age": "26-30", "engagement": "8", "difficulty": "5", "mode": "live", "gender": "female", "education": "bachelor", "condition": 0, "native": "yes"}, "trialData": {"rt": 4633, "hit": "764", "trial": 24, "response_speaker": "machine", "machine_groundtruth": "", "imageID": "static/dataset/coco_val_set/764.jpg", "page_name": "764_a_0.html/", "counterbalance": 0, "groundtruth": "human", "human_groundtruth": "human", "response_gender": "female"}}, "Trial_25": {"workerID": "A1MJVTR0PCKBWW", "workerData": {"country": "United States", "age": "26-30", "engagement": "8", "difficulty": "5", "mode": "live", "gender": "female", "education": "bachelor", "condition": 0, "native": "yes"}, "trialData": {"rt": 3025, "hit": "32", "trial": 25, "response_speaker": "machine", "machine_groundtruth": "detectron", "imageID": "static/dataset/coco_val_set/32.jpg", "page_name": "32_c_0.html/", "counterbalance": 0, "groundtruth": "machine", "human_groundtruth": "", "response_gender": "female"}}, "Trial_26": {"workerID": "A3A8P4UR9A0DWQ", "workerData": {"country": "United States", "age": "45-50", "engagement": "10", "difficulty": "0", "mode": "live", "gender": "female", "education": "bachelor", "condition": 0, "native": "yes"}, "trialData": {"rt": 16974, "hit": "494", "trial": 1, "response_speaker": "machine", "machine_groundtruth": "google", "imageID": "static/dataset/coco_val_set/494.jpg", "page_name": "494_d_0.html/", "counterbalance": 0, "groundtruth": "machine", "human_groundtruth": "", "response_gender": "male"}}, "Trial_27": {"workerID": "A3A8P4UR9A0DWQ", "workerData": {"country": "United States", "age": "45-50", "engagement": "10", "difficulty": "0", "mode": "live", "gender": "female", "education": "bachelor", "condition": 0, "native": "yes"}, "trialData": {"rt": 17789, "hit": "408", "trial": 2, "response_speaker": "machine", "machine_groundtruth": "detectron", "imageID": "static/dataset/coco_val_set/408.jpg", "page_name": "408_c_0.html/", "counterbalance": 0, "groundtruth": "machine", "human_groundtruth": "", "response_gender": "male"}}, "Trial_28": {"workerID": "A3A8P4UR9A0DWQ", "workerData": {"country": "United States", "age": "45-50", "engagement": "10", "difficulty": "0", "mode": "live", "gender": "female", "education": "bachelor", "condition": 0, "native": "yes"}, "trialData": {"rt": 12540, "hit": "3805", "trial": 3, "response_speaker": "human", "machine_groundtruth": "detectron", "imageID": "static/dataset/coco_val_set/3805.jpg", "page_name": "3805_c_0.html/", "counterbalance": 0, "groundtruth": "machine", "human_groundtruth": "", "response_gender": "male"}}, "Trial_29": {"workerID": "A3A8P4UR9A0DWQ", "workerData": {"country": "United States", "age": "45-50", "engagement": "10", "difficulty": "0", "mode": "live", "gender": "female", "education": "bachelor", "condition": 0, "native": "yes"}, "trialData": {"rt": 7647, "hit": "584", "trial": 4, "response_speaker": "human", "machine_groundtruth": "", "imageID": "static/dataset/coco_val_set/584.jpg", "page_name": "584_a_0.html/", "counterbalance": 0, "groundtruth": "human", "human_groundtruth": "human", "response_gender": "female"}}, "Trial_30": {"workerID": "A3A8P4UR9A0DWQ", "workerData": {"country": "United States", "age": "45-50", "engagement": "10", "difficulty": "0", "mode": "live", "gender": "female", "education": "bachelor", "condition": 0, "native": "yes"}, "trialData": {"rt": 8507, "hit": "802", "trial": 5, "response_speaker": "human", "machine_groundtruth": "", "imageID": "static/dataset/coco_val_set/802.jpg", "page_name": "802_a_0.html/", "counterbalance": 0, "groundtruth": "human", "human_groundtruth": "human", "response_gender": "female"}}, "Trial_31": {"workerID": "A3A8P4UR9A0DWQ", "workerData": {"country": "United States", "age": "45-50", "engagement": "10", "difficulty": "0", "mode": "live", "gender": "female", "education": "bachelor", "condition": 0, "native": "yes"}, "trialData": {"rt": 8062, "hit": "327", "trial": 6, "response_speaker": "machine", "machine_groundtruth": "google", "imageID": "static/dataset/coco_val_set/327.jpg", "page_name": "327_d_0.html/", "counterbalance": 0, "groundtruth": "machine", "human_groundtruth": "", "response_gender": "male"}}, "Trial_33": {"workerID": "A3A8P4UR9A0DWQ", "workerData": {"country": "United States", "age": "45-50", "engagement": "10", "difficulty": "0", "mode": "live", "gender": "female", "education": "bachelor", "condition": 0, "native": "yes"}, "trialData": {"rt": 8682, "hit": "325", "trial": 8, "response_speaker": "machine", "machine_groundtruth": "rekognition", "imageID": "static/dataset/coco_val_set/325.jpg", "page_name": "325_e_0.html/", "counterbalance": 0, "groundtruth": "machine", "human_groundtruth": "", "response_gender": "male"}}, "Trial_34": {"workerID": "A3A8P4UR9A0DWQ", "workerData": {"country": "United States", "age": "45-50", "engagement": "10", "difficulty": "0", "mode": "live", "gender": "female", "education": "bachelor", "condition": 0, "native": "yes"}, "trialData": {"rt": 7904, "hit": "234", "trial": 9, "response_speaker": "machine", "machine_groundtruth": "azure", "imageID": "static/dataset/coco_val_set/234.jpg", "page_name": "234_b_0.html/", "counterbalance": 0, "groundtruth": "machine", "human_groundtruth": "", "response_gender": "male"}}, "Trial_35": {"workerID": "A3A8P4UR9A0DWQ", "workerData": {"country": "United States", "age": "45-50", "engagement": "10", "difficulty": "0", "mode": "live", "gender": "female", "education": "bachelor", "condition": 0, "native": "yes"}, "trialData": {"rt": 14378, "hit": "280", "trial": 10, "response_speaker": "machine", "machine_groundtruth": "azure", "imageID": "static/dataset/coco_val_set/280.jpg", "page_name": "280_b_0.html/", "counterbalance": 0, "groundtruth": "machine", "human_groundtruth": "", "response_gender": "female"}}, "Trial_36": {"workerID": "A3A8P4UR9A0DWQ", "workerData": {"country": "United States", "age": "45-50", "engagement": "10", "difficulty": "0", "mode": "live", "gender": "female", "education": "bachelor", "condition": 0, "native": "yes"}, "trialData": {"rt": 7579, "hit": "188", "trial": 11, "response_speaker": "human", "machine_groundtruth": "", "imageID": "static/dataset/coco_val_set/188.jpg", "page_name": "188_a_0.html/", "counterbalance": 0, "groundtruth": "human", "human_groundtruth": "human", "response_gender": "female"}}, "Trial_37": {"workerID": "A3A8P4UR9A0DWQ", "workerData": {"country": "United States", "age": "45-50", "engagement": "10", "difficulty": "0", "mode": "live", "gender": "female", "education": "bachelor", "condition": 0, "native": "yes"}, "trialData": {"rt": 19214, "hit": "1887", "trial": 12, "response_speaker": "machine", "machine_groundtruth": "google", "imageID": "static/dataset/coco_val_set/1887.jpg", "page_name": "1887_d_0.html/", "counterbalance": 0, "groundtruth": "machine", "human_groundtruth": "", "response_gender": "female"}}, "Trial_38": {"workerID": "A3A8P4UR9A0DWQ", "workerData": {"country": "United States", "age": "45-50", "engagement": "10", "difficulty": "0", "mode": "live", "gender": "female", "education": "bachelor", "condition": 0, "native": "yes"}, "trialData": {"rt": 7859, "hit": "392", "trial": 13, "response_speaker": "human", "machine_groundtruth": "", "imageID": "static/dataset/coco_val_set/392.jpg", "page_name": "392_a_0.html/", "counterbalance": 0, "groundtruth": "human", "human_groundtruth": "human", "response_gender": "male"}}, "Trial_39": {"workerID": "A3A8P4UR9A0DWQ", "workerData": {"country": "United States", "age": "45-50", "engagement": "10", "difficulty": "0", "mode": "live", "gender": "female", "education": "bachelor", "condition": 0, "native": "yes"}, "trialData": {"rt": 11752, "hit": "3323", "trial": 14, "response_speaker": "human", "machine_groundtruth": "rekognition", "imageID": "static/dataset/coco_val_set/3323.jpg", "page_name": "3323_e_0.html/", "counterbalance": 0, "groundtruth": "machine", "human_groundtruth": "", "response_gender": "male"}}, "Trial_40": {"workerID": "A3A8P4UR9A0DWQ", "workerData": {"country": "United States", "age": "45-50", "engagement": "10", "difficulty": "0", "mode": "live", "gender": "female", "education": "bachelor", "condition": 0, "native": "yes"}, "trialData": {"rt": 12026, "hit": "944", "trial": 15, "response_speaker": "human", "machine_groundtruth": "", "imageID": "static/dataset/coco_val_set/944.jpg", "page_name": "944_a_0.html/", "counterbalance": 0, "groundtruth": "human", "human_groundtruth": "human", "response_gender": "male"}}, "Trial_41": {"workerID": "A3A8P4UR9A0DWQ", "workerData": {"country": "United States", "age": "45-50", "engagement": "10", "difficulty": "0", "mode": "live", "gender": "female", "education": "bachelor", "condition": 0, "native": "yes"}, "trialData": {"rt": 7665, "hit": "208", "trial": 16, "response_speaker": "machine", "machine_groundtruth": "rekognition", "imageID": "static/dataset/coco_val_set/208.jpg", "page_name": "208_e_0.html/", "counterbalance": 0, "groundtruth": "machine", "human_groundtruth": "", "response_gender": "male"}}, "Trial_42": {"workerID": "A3A8P4UR9A0DWQ", "workerData": {"country": "United States", "age": "45-50", "engagement": "10", "difficulty": "0", "mode": "live", "gender": "female", "education": "bachelor", "condition": 0, "native": "yes"}, "trialData": {"rt": 10070, "hit": "376", "trial": 17, "response_speaker": "human", "machine_groundtruth": "", "imageID": "static/dataset/coco_val_set/376.jpg", "page_name": "376_a_0.html/", "counterbalance": 0, "groundtruth": "human", "human_groundtruth": "human", "response_gender": "male"}}, "Trial_43": {"workerID": "A3A8P4UR9A0DWQ", "workerData": {"country": "United States", "age": "45-50", "engagement": "10", "difficulty": "0", "mode": "live", "gender": "female", "education": "bachelor", "condition": 0, "native": "yes"}, "trialData": {"rt": 9922, "hit": "606", "trial": 18, "response_speaker": "human", "machine_groundtruth": "", "imageID": "static/dataset/coco_val_set/606.jpg", "page_name": "606_a_0.html/", "counterbalance": 0, "groundtruth": "human", "human_groundtruth": "human", "response_gender": "male"}}, "Trial_44": {"workerID": "A3A8P4UR9A0DWQ", "workerData": {"country": "United States", "age": "45-50", "engagement": "10", "difficulty": "0", "mode": "live", "gender": "female", "education": "bachelor", "condition": 0, "native": "yes"}, "trialData": {"rt": 12323, "hit": "730", "trial": 19, "response_speaker": "human", "machine_groundtruth": "google", "imageID": "static/dataset/coco_val_set/730.jpg", "page_name": "730_d_0.html/", "counterbalance": 0, "groundtruth": "machine", "human_groundtruth": "", "response_gender": "female"}}, "Trial_45": {"workerID": "A3A8P4UR9A0DWQ", "workerData": {"country": "United States", "age": "45-50", "engagement": "10", "difficulty": "0", "mode": "live", "gender": "female", "education": "bachelor", "condition": 0, "native": "yes"}, "trialData": {"rt": 6934, "hit": "676", "trial": 20, "response_speaker": "machine", "machine_groundtruth": "", "imageID": "static/dataset/coco_val_set/676.jpg", "page_name": "676_a_0.html/", "counterbalance": 0, "groundtruth": "human", "human_groundtruth": "human", "response_gender": "female"}}, "Trial_46": {"workerID": "A3A8P4UR9A0DWQ", "workerData": {"country": "United States", "age": "45-50", "engagement": "10", "difficulty": "0", "mode": "live", "gender": "female", "education": "bachelor", "condition": 0, "native": "yes"}, "trialData": {"rt": 8221, "hit": "298", "trial": 21, "response_speaker": "human", "machine_groundtruth": "rekognition", "imageID": "static/dataset/coco_val_set/298.jpg", "page_name": "298_e_0.html/", "counterbalance": 0, "groundtruth": "machine", "human_groundtruth": "", "response_gender": "female"}}, "Trial_47": {"workerID": "A3A8P4UR9A0DWQ", "workerData": {"country": "United States", "age": "45-50", "engagement": "10", "difficulty": "0", "mode": "live", "gender": "female", "education": "bachelor", "condition": 0, "native": "yes"}, "trialData": {"rt": 7396, "hit": "292", "trial": 22, "response_speaker": "machine", "machine_groundtruth": "", "imageID": "static/dataset/coco_val_set/292.jpg", "page_name": "292_a_0.html/", "counterbalance": 0, "groundtruth": "human", "human_groundtruth": "human", "response_gender": "female"}}, "Trial_48": {"workerID": "A3A8P4UR9A0DWQ", "workerData": {"country": "United States", "age": "45-50", "engagement": "10", "difficulty": "0", "mode": "live", "gender": "female", "education": "bachelor", "condition": 0, "native": "yes"}, "trialData": {"rt": 9029, "hit": "23", "trial": 23, "response_speaker": "machine", "machine_groundtruth": "google", "imageID": "static/dataset/coco_val_set/23.jpg", "page_name": "23_d_0.html/", "counterbalance": 0, "groundtruth": "machine", "human_groundtruth": "", "response_gender": "female"}}, "Trial_49": {"workerID": "A3A8P4UR9A0DWQ", "workerData": {"country": "United States", "age": "45-50", "engagement": "10", "difficulty": "0", "mode": "live", "gender": "female", "education": "bachelor", "condition": 0, "native": "yes"}, "trialData": {"rt": 5788, "hit": "1968", "trial": 24, "response_speaker": "human", "machine_groundtruth": "", "imageID": "static/dataset/coco_val_set/1968.jpg", "page_name": "1968_a_0.html/", "counterbalance": 0, "groundtruth": "human", "human_groundtruth": "human", "response_gender": "female"}}, "Trial_50": {"workerID": "A3A8P4UR9A0DWQ", "workerData": {"country": "United States", "age": "45-50", "engagement": "10", "difficulty": "0", "mode": "live", "gender": "female", "education": "bachelor", "condition": 0, "native": "yes"}, "trialData": {"rt": 9241, "hit": "655", "trial": 25, "response_speaker": "human", "machine_groundtruth": "", "imageID": "static/dataset/coco_val_set/655.jpg", "page_name": "655_a_0.html/", "counterbalance": 0, "groundtruth": "human", "human_groundtruth": "human", "response_gender": "female"}}, "Trial_51": {"workerID": "A2BW6WD7LZ9EGV", "workerData": {"country": "United States", "age": "31-35", "engagement": "10", "difficulty": "0", "mode": "live", "gender": "male", "education": "high school", "condition": 0, "native": "yes"}, "trialData": {"rt": 8756, "hit": "703", "trial": 1, "response_speaker": "machine", "machine_groundtruth": "rekognition", "imageID": "static/dataset/coco_val_set/703.jpg", "page_name": "703_e_0.html/", "counterbalance": 0, "groundtruth": "machine", "human_groundtruth": "", "response_gender": "female"}}, "Trial_52": {"workerID": "A2BW6WD7LZ9EGV", "workerData": {"country": "United States", "age": "31-35", "engagement": "10", "difficulty": "0", "mode": "live", "gender": "male", "education": "high school", "condition": 0, "native": "yes"}, "trialData": {"rt": 8956, "hit": "2672", "trial": 2, "response_speaker": "machine", "machine_groundtruth": "", "imageID": "static/dataset/coco_val_set/2672.jpg", "page_name": "2672_a_0.html/", "counterbalance": 0, "groundtruth": "human", "human_groundtruth": "human", "response_gender": "female"}}, "Trial_53": {"workerID": "A2BW6WD7LZ9EGV", "workerData": {"country": "United States", "age": "31-35", "engagement": "10", "difficulty": "0", "mode": "live", "gender": "male", "education": "high school", "condition": 0, "native": "yes"}, "trialData": {"rt": 12112, "hit": "745", "trial": 3, "response_speaker": "human", "machine_groundtruth": "", "imageID": "static/dataset/coco_val_set/745.jpg", "page_name": "745_a_0.html/", "counterbalance": 0, "groundtruth": "human", "human_groundtruth": "human", "response_gender": "male"}}, "Trial_55": {"workerID": "A2BW6WD7LZ9EGV", "workerData": {"country": "United States", "age": "31-35", "engagement": "10", "difficulty": "0", "mode": "live", "gender": "male", "education": "high school", "condition": 0, "native": "yes"}, "trialData": {"rt": 3349, "hit": "849", "trial": 5, "response_speaker": "human", "machine_groundtruth": "", "imageID": "static/dataset/coco_val_set/849.jpg", "page_name": "849_a_0.html/", "counterbalance": 0, "groundtruth": "human", "human_groundtruth": "human", "response_gender": "male"}}, "Trial_56": {"workerID": "A2BW6WD7LZ9EGV", "workerData": {"country": "United States", "age": "31-35", "engagement": "10", "difficulty": "0", "mode": "live", "gender": "male", "education": "high school", "condition": 0, "native": "yes"}, "trialData": {"rt": 6127, "hit": "426", "trial": 6, "response_speaker": "machine", "machine_groundtruth": "google", "imageID": "static/dataset/coco_val_set/426.jpg", "page_name": "426_d_0.html/", "counterbalance": 0, "groundtruth": "machine", "human_groundtruth": "", "response_gender": "male"}}, "Trial_57": {"workerID": "A2BW6WD7LZ9EGV", "workerData": {"country": "United States", "age": "31-35", "engagement": "10", "difficulty": "0", "mode": "live", "gender": "male", "education": "high school", "condition": 0, "native": "yes"}, "trialData": {"rt": 7633, "hit": "3172", "trial": 7, "response_speaker": "human", "machine_groundtruth": "", "imageID": "static/dataset/coco_val_set/3172.jpg", "page_name": "3172_a_0.html/", "counterbalance": 0, "groundtruth": "human", "human_groundtruth": "human", "response_gender": "male"}}, "Trial_58": {"workerID": "A2BW6WD7LZ9EGV", "workerData": {"country": "United States", "age": "31-35", "engagement": "10", "difficulty": "0", "mode": "live", "gender": "male", "education": "high school", "condition": 0, "native": "yes"}, "trialData": {"rt": 5082, "hit": "3272", "trial": 8, "response_speaker": "human", "machine_groundtruth": "google", "imageID": "static/dataset/coco_val_set/3272.jpg", "page_name": "3272_d_0.html/", "counterbalance": 0, "groundtruth": "machine", "human_groundtruth": "", "response_gender": "female"}}, "Trial_59": {"workerID": "A2BW6WD7LZ9EGV", "workerData": {"country": "United States", "age": "31-35", "engagement": "10", "difficulty": "0", "mode": "live", "gender": "male", "education": "high school", "condition": 0, "native": "yes"}, "trialData": {"rt": 7231, "hit": "454", "trial": 9, "response_speaker": "machine", "machine_groundtruth": "azure", "imageID": "static/dataset/coco_val_set/454.jpg", "page_name": "454_b_0.html/", "counterbalance": 0, "groundtruth": "machine", "human_groundtruth": "", "response_gender": "female"}}, "Trial_60": {"workerID": "A2BW6WD7LZ9EGV", "workerData": {"country": "United States", "age": "31-35", "engagement": "10", "difficulty": "0", "mode": "live", "gender": "male", "education": "high school", "condition": 0, "native": "yes"}, "trialData": {"rt": 5322, "hit": "4355", "trial": 10, "response_speaker": "machine", "machine_groundtruth": "", "imageID": "static/dataset/coco_val_set/4355.jpg", "page_name": "4355_a_0.html/", "counterbalance": 0, "groundtruth": "human", "human_groundtruth": "human", "response_gender": "female"}}, "Trial_61": {"workerID": "A2BW6WD7LZ9EGV", "workerData": {"country": "United States", "age": "31-35", "engagement": "10", "difficulty": "0", "mode": "live", "gender": "male", "education": "high school", "condition": 0, "native": "yes"}, "trialData": {"rt": 3728, "hit": "38", "trial": 11, "response_speaker": "machine", "machine_groundtruth": "rekognition", "imageID": "static/dataset/coco_val_set/38.jpg", "page_name": "38_e_0.html/", "counterbalance": 0, "groundtruth": "machine", "human_groundtruth": "", "response_gender": "female"}}, "Trial_62": {"workerID": "A2BW6WD7LZ9EGV", "workerData": {"country": "United States", "age": "31-35", "engagement": "10", "difficulty": "0", "mode": "live", "gender": "male", "education": "high school", "condition": 0, "native": "yes"}, "trialData": {"rt": 3511, "hit": "515", "trial": 12, "response_speaker": "machine", "machine_groundtruth": "", "imageID": "static/dataset/coco_val_set/515.jpg", "page_name": "515_a_0.html/", "counterbalance": 0, "groundtruth": "human", "human_groundtruth": "human", "response_gender": "female"}}, "Trial_63": {"workerID": "A2BW6WD7LZ9EGV", "workerData": {"country": "United States", "age": "31-35", "engagement": "10", "difficulty": "0", "mode": "live", "gender": "male", "education": "high school", "condition": 0, "native": "yes"}, "trialData": {"rt": 9141, "hit": "2", "trial": 13, "response_speaker": "human", "machine_groundtruth": "", "imageID": "static/dataset/coco_val_set/2.jpg", "page_name": "2_a_0.html/", "counterbalance": 0, "groundtruth": "human", "human_groundtruth": "human", "response_gender": "male"}}, "Trial_64": {"workerID": "A2BW6WD7LZ9EGV", "workerData": {"country": "United States", "age": "31-35", "engagement": "10", "difficulty": "0", "mode": "live", "gender": "male", "education": "high school", "condition": 0, "native": "yes"}, "trialData": {"rt": 3259, "hit": "64", "trial": 14, "response_speaker": "human", "machine_groundtruth": "", "imageID": "static/dataset/coco_val_set/64.jpg", "page_name": "64_a_0.html/", "counterbalance": 0, "groundtruth": "human", "human_groundtruth": "human", "response_gender": "male"}}, "Trial_65": {"workerID": "A2BW6WD7LZ9EGV", "workerData": {"country": "United States", "age": "31-35", "engagement": "10", "difficulty": "0", "mode": "live", "gender": "male", "education": "high school", "condition": 0, "native": "yes"}, "trialData": {"rt": 6684, "hit": "862", "trial": 15, "response_speaker": "machine", "machine_groundtruth": "azure", "imageID": "static/dataset/coco_val_set/862.jpg", "page_name": "862_b_0.html/", "counterbalance": 0, "groundtruth": "machine", "human_groundtruth": "", "response_gender": "male"}}, "Trial_66": {"workerID": "A2BW6WD7LZ9EGV", "workerData": {"country": "United States", "age": "31-35", "engagement": "10", "difficulty": "0", "mode": "live", "gender": "male", "education": "high school", "condition": 0, "native": "yes"}, "trialData": {"rt": 25279, "hit": "54", "trial": 16, "response_speaker": "machine", "machine_groundtruth": "google", "imageID": "static/dataset/coco_val_set/54.jpg", "page_name": "54_d_0.html/", "counterbalance": 0, "groundtruth": "machine", "human_groundtruth": "", "response_gender": "male"}}, "Trial_68": {"workerID": "A2BW6WD7LZ9EGV", "workerData": {"country": "United States", "age": "31-35", "engagement": "10", "difficulty": "0", "mode": "live", "gender": "male", "education": "high school", "condition": 0, "native": "yes"}, "trialData": {"rt": 4380, "hit": "907", "trial": 18, "response_speaker": "machine", "machine_groundtruth": "google", "imageID": "static/dataset/coco_val_set/907.jpg", "page_name": "907_d_0.html/", "counterbalance": 0, "groundtruth": "machine", "human_groundtruth": "", "response_gender": "male"}}, "Trial_69": {"workerID": "A2BW6WD7LZ9EGV", "workerData": {"country": "United States", "age": "31-35", "engagement": "10", "difficulty": "0", "mode": "live", "gender": "male", "education": "high school", "condition": 0, "native": "yes"}, "trialData": {"rt": 4774, "hit": "868", "trial": 19, "response_speaker": "machine", "machine_groundtruth": "detectron", "imageID": "static/dataset/coco_val_set/868.jpg", "page_name": "868_c_0.html/", "counterbalance": 0, "groundtruth": "machine", "human_groundtruth": "", "response_gender": "male"}}, "Trial_70": {"workerID": "A2BW6WD7LZ9EGV", "workerData": {"country": "United States", "age": "31-35", "engagement": "10", "difficulty": "0", "mode": "live", "gender": "male", "education": "high school", "condition": 0, "native": "yes"}, "trialData": {"rt": 6982, "hit": "3258", "trial": 20, "response_speaker": "human", "machine_groundtruth": "", "imageID": "static/dataset/coco_val_set/3258.jpg", "page_name": "3258_a_0.html/", "counterbalance": 0, "groundtruth": "human", "human_groundtruth": "human", "response_gender": "male"}}, "Trial_71": {"workerID": "A2BW6WD7LZ9EGV", "workerData": {"country": "United States", "age": "31-35", "engagement": "10", "difficulty": "0", "mode": "live", "gender": "male", "education": "high school", "condition": 0, "native": "yes"}, "trialData": {"rt": 13409, "hit": "548", "trial": 21, "response_speaker": "machine", "machine_groundtruth": "", "imageID": "static/dataset/coco_val_set/548.jpg", "page_name": "548_a_0.html/", "counterbalance": 0, "groundtruth": "human", "human_groundtruth": "human", "response_gender": "male"}}, "Trial_72": {"workerID": "A2BW6WD7LZ9EGV", "workerData": {"country": "United States", "age": "31-35", "engagement": "10", "difficulty": "0", "mode": "live", "gender": "male", "education": "high school", "condition": 0, "native": "yes"}, "trialData": {"rt": 4999, "hit": "410", "trial": 22, "response_speaker": "human", "machine_groundtruth": "", "imageID": "static/dataset/coco_val_set/410.jpg", "page_name": "410_a_0.html/", "counterbalance": 0, "groundtruth": "human", "human_groundtruth": "human", "response_gender": "male"}}, "Trial_73": {"workerID": "A2BW6WD7LZ9EGV", "workerData": {"country": "United States", "age": "31-35", "engagement": "10", "difficulty": "0", "mode": "live", "gender": "male", "education": "high school", "condition": 0, "native": "yes"}, "trialData": {"rt": 16549, "hit": "179", "trial": 23, "response_speaker": "machine", "machine_groundtruth": "rekognition", "imageID": "static/dataset/coco_val_set/179.jpg", "page_name": "179_e_0.html/", "counterbalance": 0, "groundtruth": "machine", "human_groundtruth": "", "response_gender": "male"}}, "Trial_74": {"workerID": "A2BW6WD7LZ9EGV", "workerData": {"country": "United States", "age": "31-35", "engagement": "10", "difficulty": "0", "mode": "live", "gender": "male", "education": "high school", "condition": 0, "native": "yes"}, "trialData": {"rt": 7086, "hit": "204", "trial": 24, "response_speaker": "human", "machine_groundtruth": "", "imageID": "static/dataset/coco_val_set/204.jpg", "page_name": "204_a_0.html/", "counterbalance": 0, "groundtruth": "human", "human_groundtruth": "human", "response_gender": "male"}}, "Trial_76": {"workerID": "A1MTRZDRKNB9GV", "workerData": {"country": "United States", "age": "45-50", "engagement": "9", "difficulty": "7", "mode": "live", "gender": "female", "education": "high school", "condition": 0, "native": "yes"}, "trialData": {"rt": 20039, "hit": "143", "trial": 1, "response_speaker": "machine", "machine_groundtruth": "google", "imageID": "static/dataset/coco_val_set/143.jpg", "page_name": "143_d_0.html/", "counterbalance": 0, "groundtruth": "machine", "human_groundtruth": "", "response_gender": "female"}}, "Trial_77": {"workerID": "A1MTRZDRKNB9GV", "workerData": {"country": "United States", "age": "45-50", "engagement": "9", "difficulty": "7", "mode": "live", "gender": "female", "education": "high school", "condition": 0, "native": "yes"}, "trialData": {"rt": 17527, "hit": "419", "trial": 2, "response_speaker": "human", "machine_groundtruth": "", "imageID": "static/dataset/coco_val_set/419.jpg", "page_name": "419_a_0.html/", "counterbalance": 0, "groundtruth": "human", "human_groundtruth": "human", "response_gender": "female"}}, "Trial_78": {"workerID": "A1MTRZDRKNB9GV", "workerData": {"country": "United States", "age": "45-50", "engagement": "9", "difficulty": "7", "mode": "live", "gender": "female", "education": "high school", "condition": 0, "native": "yes"}, "trialData": {"rt": 15312, "hit": "1856", "trial": 3, "response_speaker": "human", "machine_groundtruth": "", "imageID": "static/dataset/coco_val_set/1856.jpg", "page_name": "1856_a_0.html/", "counterbalance": 0, "groundtruth": "human", "human_groundtruth": "human", "response_gender": "male"}}, "Trial_79": {"workerID": "A1MTRZDRKNB9GV", "workerData": {"country": "United States", "age": "45-50", "engagement": "9", "difficulty": "7", "mode": "live", "gender": "female", "education": "high school", "condition": 0, "native": "yes"}, "trialData": {"rt": 20432, "hit": "704", "trial": 4, "response_speaker": "human", "machine_groundtruth": "azure", "imageID": "static/dataset/coco_val_set/704.jpg", "page_name": "704_b_0.html/", "counterbalance": 0, "groundtruth": "machine", "human_groundtruth": "", "response_gender": "male"}}, "Trial_80": {"workerID": "A1MTRZDRKNB9GV", "workerData": {"country": "United States", "age": "45-50", "engagement": "9", "difficulty": "7", "mode": "live", "gender": "female", "education": "high school", "condition": 0, "native": "yes"}, "trialData": {"rt": 26024, "hit": "579", "trial": 5, "response_speaker": "machine", "machine_groundtruth": "rekognition", "imageID": "static/dataset/coco_val_set/579.jpg", "page_name": "579_e_0.html/", "counterbalance": 0, "groundtruth": "machine", "human_groundtruth": "", "response_gender": "male"}}, "Trial_81": {"workerID": "A1MTRZDRKNB9GV", "workerData": {"country": "United States", "age": "45-50", "engagement": "9", "difficulty": "7", "mode": "live", "gender": "female", "education": "high school", "condition": 0, "native": "yes"}, "trialData": {"rt": 13655, "hit": "1712", "trial": 6, "response_speaker": "human", "machine_groundtruth": "", "imageID": "static/dataset/coco_val_set/1712.jpg", "page_name": "1712_a_0.html/", "counterbalance": 0, "groundtruth": "human", "human_groundtruth": "human", "response_gender": "male"}}, "Trial_83": {"workerID": "A1MTRZDRKNB9GV", "workerData": {"country": "United States", "age": "45-50", "engagement": "9", "difficulty": "7", "mode": "live", "gender": "female", "education": "high school", "condition": 0, "native": "yes"}, "trialData": {"rt": 11640, "hit": "134", "trial": 8, "response_speaker": "human", "machine_groundtruth": "rekognition", "imageID": "static/dataset/coco_val_set/134.jpg", "page_name": "134_e_0.html/", "counterbalance": 0, "groundtruth": "machine", "human_groundtruth": "", "response_gender": "male"}}, "Trial_84": {"workerID": "A1MTRZDRKNB9GV", "workerData": {"country": "United States", "age": "45-50", "engagement": "9", "difficulty": "7", "mode": "live", "gender": "female", "education": "high school", "condition": 0, "native": "yes"}, "trialData": {"rt": 11119, "hit": "866", "trial": 9, "response_speaker": "human", "machine_groundtruth": "", "imageID": "static/dataset/coco_val_set/866.jpg", "page_name": "866_a_0.html/", "counterbalance": 0, "groundtruth": "human", "human_groundtruth": "human", "response_gender": "male"}}, "Trial_85": {"workerID": "A1MTRZDRKNB9GV", "workerData": {"country": "United States", "age": "45-50", "engagement": "9", "difficulty": "7", "mode": "live", "gender": "female", "education": "high school", "condition": 0, "native": "yes"}, "trialData": {"rt": 9695, "hit": "981", "trial": 10, "response_speaker": "human", "machine_groundtruth": "azure", "imageID": "static/dataset/coco_val_set/981.jpg", "page_name": "981_b_0.html/", "counterbalance": 0, "groundtruth": "machine", "human_groundtruth": "", "response_gender": "male"}}, "Trial_86": {"workerID": "A1MTRZDRKNB9GV", "workerData": {"country": "United States", "age": "45-50", "engagement": "9", "difficulty": "7", "mode": "live", "gender": "female", "education": "high school", "condition": 0, "native": "yes"}, "trialData": {"rt": 9079, "hit": "258", "trial": 11, "response_speaker": "human", "machine_groundtruth": "google", "imageID": "static/dataset/coco_val_set/258.jpg", "page_name": "258_d_0.html/", "counterbalance": 0, "groundtruth": "machine", "human_groundtruth": "", "response_gender": "male"}}, "Trial_87": {"workerID": "A1MTRZDRKNB9GV", "workerData": {"country": "United States", "age": "45-50", "engagement": "9", "difficulty": "7", "mode": "live", "gender": "female", "education": "high school", "condition": 0, "native": "yes"}, "trialData": {"rt": 12696, "hit": "2227", "trial": 12, "response_speaker": "machine", "machine_groundtruth": "", "imageID": "static/dataset/coco_val_set/2227.jpg", "page_name": "2227_a_0.html/", "counterbalance": 0, "groundtruth": "human", "human_groundtruth": "human", "response_gender": "female"}}, "Trial_88": {"workerID": "A1MTRZDRKNB9GV", "workerData": {"country": "United States", "age": "45-50", "engagement": "9", "difficulty": "7", "mode": "live", "gender": "female", "education": "high school", "condition": 0, "native": "yes"}, "trialData": {"rt": 8576, "hit": "1209", "trial": 13, "response_speaker": "human", "machine_groundtruth": "", "imageID": "static/dataset/coco_val_set/1209.jpg", "page_name": "1209_a_0.html/", "counterbalance": 0, "groundtruth": "human", "human_groundtruth": "human", "response_gender": "male"}}, "Trial_89": {"workerID": "A1MTRZDRKNB9GV", "workerData": {"country": "United States", "age": "45-50", "engagement": "9", "difficulty": "7", "mode": "live", "gender": "female", "education": "high school", "condition": 0, "native": "yes"}, "trialData": {"rt": 6359, "hit": "962", "trial": 14, "response_speaker": "machine", "machine_groundtruth": "", "imageID": "static/dataset/coco_val_set/962.jpg", "page_name": "962_a_0.html/", "counterbalance": 0, "groundtruth": "human", "human_groundtruth": "human", "response_gender": "male"}}, "Trial_90": {"workerID": "A1MTRZDRKNB9GV", "workerData": {"country": "United States", "age": "45-50", "engagement": "9", "difficulty": "7", "mode": "live", "gender": "female", "education": "high school", "condition": 0, "native": "yes"}, "trialData": {"rt": 15768, "hit": "780", "trial": 15, "response_speaker": "human", "machine_groundtruth": "azure", "imageID": "static/dataset/coco_val_set/780.jpg", "page_name": "780_b_0.html/", "counterbalance": 0, "groundtruth": "machine", "human_groundtruth": "", "response_gender": "male"}}, "Trial_91": {"workerID": "A1MTRZDRKNB9GV", "workerData": {"country": "United States", "age": "45-50", "engagement": "9", "difficulty": "7", "mode": "live", "gender": "female", "education": "high school", "condition": 0, "native": "yes"}, "trialData": {"rt": 9038, "hit": "4621", "trial": 16, "response_speaker": "human", "machine_groundtruth": "rekognition", "imageID": "static/dataset/coco_val_set/4621.jpg", "page_name": "4621_e_0.html/", "counterbalance": 0, "groundtruth": "machine", "human_groundtruth": "", "response_gender": "female"}}, "Trial_94": {"workerID": "A1MTRZDRKNB9GV", "workerData": {"country": "United States", "age": "45-50", "engagement": "9", "difficulty": "7", "mode": "live", "gender": "female", "education": "high school", "condition": 0, "native": "yes"}, "trialData": {"rt": 7919, "hit": "62", "trial": 19, "response_speaker": "human", "machine_groundtruth": "detectron", "imageID": "static/dataset/coco_val_set/62.jpg", "page_name": "62_c_0.html/", "counterbalance": 0, "groundtruth": "machine", "human_groundtruth": "", "response_gender": "male"}}, "Trial_95": {"workerID": "A1MTRZDRKNB9GV", "workerData": {"country": "United States", "age": "45-50", "engagement": "9", "difficulty": "7", "mode": "live", "gender": "female", "education": "high school", "condition": 0, "native": "yes"}, "trialData": {"rt": 6079, "hit": "696", "trial": 20, "response_speaker": "human", "machine_groundtruth": "", "imageID": "static/dataset/coco_val_set/696.jpg", "page_name": "696_a_0.html/", "counterbalance": 0, "groundtruth": "human", "human_groundtruth": "human", "response_gender": "female"}}, "Trial_96": {"workerID": "A1MTRZDRKNB9GV", "workerData": {"country": "United States", "age": "45-50", "engagement": "9", "difficulty": "7", "mode": "live", "gender": "female", "education": "high school", "condition": 0, "native": "yes"}, "trialData": {"rt": 6615, "hit": "3808", "trial": 21, "response_speaker": "human", "machine_groundtruth": "azure", "imageID": "static/dataset/coco_val_set/3808.jpg", "page_name": "3808_b_0.html/", "counterbalance": 0, "groundtruth": "machine", "human_groundtruth": "", "response_gender": "male"}}, "Trial_97": {"workerID": "A1MTRZDRKNB9GV", "workerData": {"country": "United States", "age": "45-50", "engagement": "9", "difficulty": "7", "mode": "live", "gender": "female", "education": "high school", "condition": 0, "native": "yes"}, "trialData": {"rt": 9495, "hit": "195", "trial": 22, "response_speaker": "human", "machine_groundtruth": "rekognition", "imageID": "static/dataset/coco_val_set/195.jpg", "page_name": "195_e_0.html/", "counterbalance": 0, "groundtruth": "machine", "human_groundtruth": "", "response_gender": "female"}}, "Trial_98": {"workerID": "A1MTRZDRKNB9GV", "workerData": {"country": "United States", "age": "45-50", "engagement": "9", "difficulty": "7", "mode": "live", "gender": "female", "education": "high school", "condition": 0, "native": "yes"}, "trialData": {"rt": 6783, "hit": "331", "trial": 23, "response_speaker": "human", "machine_groundtruth": "google", "imageID": "static/dataset/coco_val_set/331.jpg", "page_name": "331_d_0.html/", "counterbalance": 0, "groundtruth": "machine", "human_groundtruth": "", "response_gender": "female"}}, "Trial_99": {"workerID": "A1MTRZDRKNB9GV", "workerData": {"country": "United States", "age": "45-50", "engagement": "9", "difficulty": "7", "mode": "live", "gender": "female", "education": "high school", "condition": 0, "native": "yes"}, "trialData": {"rt": 7654, "hit": "256", "trial": 24, "response_speaker": "human", "machine_groundtruth": "detectron", "imageID": "static/dataset/coco_val_set/256.jpg", "page_name": "256_c_0.html/", "counterbalance": 0, "groundtruth": "machine", "human_groundtruth": "", "response_gender": "female"}}, "Trial_100": {"workerID": "A1MTRZDRKNB9GV", "workerData": {"country": "United States", "age": "45-50", "engagement": "9", "difficulty": "7", "mode": "live", "gender": "female", "education": "high school", "condition": 0, "native": "yes"}, "trialData": {"rt": 7247, "hit": "348", "trial": 25, "response_speaker": "human", "machine_groundtruth": "rekognition", "imageID": "static/dataset/coco_val_set/348.jpg", "page_name": "348_e_0.html/", "counterbalance": 0, "groundtruth": "machine", "human_groundtruth": "", "response_gender": "female"}}, "Trial_101": {"workerID": "AGNJKSH5LFKXZ", "workerData": {"country": "United States", "age": "41-45", "engagement": "10", "difficulty": "6", "mode": "live", "gender": "male", "education": "bachelor", "condition": 0, "native": "yes"}, "trialData": {"rt": 25867, "hit": "925", "trial": 1, "response_speaker": "human", "machine_groundtruth": "rekognition", "imageID": "static/dataset/coco_val_set/925.jpg", "page_name": "925_e_0.html/", "counterbalance": 0, "groundtruth": "machine", "human_groundtruth": "", "response_gender": "male"}}, "Trial_102": {"workerID": "AGNJKSH5LFKXZ", "workerData": {"country": "United States", "age": "41-45", "engagement": "10", "difficulty": "6", "mode": "live", "gender": "male", "education": "bachelor", "condition": 0, "native": "yes"}, "trialData": {"rt": 19405, "hit": "4896", "trial": 2, "response_speaker": "machine", "machine_groundtruth": "", "imageID": "static/dataset/coco_val_set/4896.jpg", "page_name": "4896_a_0.html/", "counterbalance": 0, "groundtruth": "human", "human_groundtruth": "human", "response_gender": "male"}}, "Trial_103": {"workerID": "AGNJKSH5LFKXZ", "workerData": {"country": "United States", "age": "41-45", "engagement": "10", "difficulty": "6", "mode": "live", "gender": "male", "education": "bachelor", "condition": 0, "native": "yes"}, "trialData": {"rt": 16180, "hit": "236", "trial": 3, "response_speaker": "machine", "machine_groundtruth": "google", "imageID": "static/dataset/coco_val_set/236.jpg", "page_name": "236_d_0.html/", "counterbalance": 0, "groundtruth": "machine", "human_groundtruth": "", "response_gender": "male"}}, "Trial_104": {"workerID": "AGNJKSH5LFKXZ", "workerData": {"country": "United States", "age": "41-45", "engagement": "10", "difficulty": "6", "mode": "live", "gender": "male", "education": "bachelor", "condition": 0, "native": "yes"}, "trialData": {"rt": 16710, "hit": "4319", "trial": 4, "response_speaker": "human", "machine_groundtruth": "", "imageID": "static/dataset/coco_val_set/4319.jpg", "page_name": "4319_a_0.html/", "counterbalance": 0, "groundtruth": "human", "human_groundtruth": "human", "response_gender": "male"}}, "Trial_106": {"workerID": "AGNJKSH5LFKXZ", "workerData": {"country": "United States", "age": "41-45", "engagement": "10", "difficulty": "6", "mode": "live", "gender": "male", "education": "bachelor", "condition": 0, "native": "yes"}, "trialData": {"rt": 11597, "hit": "434", "trial": 6, "response_speaker": "human", "machine_groundtruth": "", "imageID": "static/dataset/coco_val_set/434.jpg", "page_name": "434_a_0.html/", "counterbalance": 0, "groundtruth": "human", "human_groundtruth": "human", "response_gender": "female"}}, "Trial_108": {"workerID": "AGNJKSH5LFKXZ", "workerData": {"country": "United States", "age": "41-45", "engagement": "10", "difficulty": "6", "mode": "live", "gender": "male", "education": "bachelor", "condition": 0, "native": "yes"}, "trialData": {"rt": 17498, "hit": "635", "trial": 8, "response_speaker": "machine", "machine_groundtruth": "detectron", "imageID": "static/dataset/coco_val_set/635.jpg", "page_name": "635_c_0.html/", "counterbalance": 0, "groundtruth": "machine", "human_groundtruth": "", "response_gender": "female"}}, "Trial_109": {"workerID": "AGNJKSH5LFKXZ", "workerData": {"country": "United States", "age": "41-45", "engagement": "10", "difficulty": "6", "mode": "live", "gender": "male", "education": "bachelor", "condition": 0, "native": "yes"}, "trialData": {"rt": 14747, "hit": "82", "trial": 9, "response_speaker": "human", "machine_groundtruth": "detectron", "imageID": "static/dataset/coco_val_set/82.jpg", "page_name": "82_c_0.html/", "counterbalance": 0, "groundtruth": "machine", "human_groundtruth": "", "response_gender": "male"}}, "Trial_110": {"workerID": "AGNJKSH5LFKXZ", "workerData": {"country": "United States", "age": "41-45", "engagement": "10", "difficulty": "6", "mode": "live", "gender": "male", "education": "bachelor", "condition": 0, "native": "yes"}, "trialData": {"rt": 12251, "hit": "336", "trial": 10, "response_speaker": "human", "machine_groundtruth": "", "imageID": "static/dataset/coco_val_set/336.jpg", "page_name": "336_a_0.html/", "counterbalance": 0, "groundtruth": "human", "human_groundtruth": "human", "response_gender": "male"}}, "Trial_111": {"workerID": "AGNJKSH5LFKXZ", "workerData": {"country": "United States", "age": "41-45", "engagement": "10", "difficulty": "6", "mode": "live", "gender": "male", "education": "bachelor", "condition": 0, "native": "yes"}, "trialData": {"rt": 15607, "hit": "390", "trial": 11, "response_speaker": "machine", "machine_groundtruth": "", "imageID": "static/dataset/coco_val_set/390.jpg", "page_name": "390_a_0.html/", "counterbalance": 0, "groundtruth": "human", "human_groundtruth": "human", "response_gender": "female"}}, "Trial_112": {"workerID": "AGNJKSH5LFKXZ", "workerData": {"country": "United States", "age": "41-45", "engagement": "10", "difficulty": "6", "mode": "live", "gender": "male", "education": "bachelor", "condition": 0, "native": "yes"}, "trialData": {"rt": 12343, "hit": "58", "trial": 12, "response_speaker": "machine", "machine_groundtruth": "", "imageID": "static/dataset/coco_val_set/58.jpg", "page_name": "58_a_0.html/", "counterbalance": 0, "groundtruth": "human", "human_groundtruth": "human", "response_gender": "female"}}, "Trial_113": {"workerID": "AGNJKSH5LFKXZ", "workerData": {"country": "United States", "age": "41-45", "engagement": "10", "difficulty": "6", "mode": "live", "gender": "male", "education": "bachelor", "condition": 0, "native": "yes"}, "trialData": {"rt": 9707, "hit": "3589", "trial": 13, "response_speaker": "machine", "machine_groundtruth": "azure", "imageID": "static/dataset/coco_val_set/3589.jpg", "page_name": "3589_b_0.html/", "counterbalance": 0, "groundtruth": "machine", "human_groundtruth": "", "response_gender": "male"}}, "Trial_115": {"workerID": "AGNJKSH5LFKXZ", "workerData": {"country": "United States", "age": "41-45", "engagement": "10", "difficulty": "6", "mode": "live", "gender": "male", "education": "bachelor", "condition": 0, "native": "yes"}, "trialData": {"rt": 12955, "hit": "4441", "trial": 15, "response_speaker": "machine", "machine_groundtruth": "azure", "imageID": "static/dataset/coco_val_set/4441.jpg", "page_name": "4441_b_0.html/", "counterbalance": 0, "groundtruth": "machine", "human_groundtruth": "", "response_gender": "female"}}, "Trial_116": {"workerID": "AGNJKSH5LFKXZ", "workerData": {"country": "United States", "age": "41-45", "engagement": "10", "difficulty": "6", "mode": "live", "gender": "male", "education": "bachelor", "condition": 0, "native": "yes"}, "trialData": {"rt": 10076, "hit": "810", "trial": 16, "response_speaker": "machine", "machine_groundtruth": "google", "imageID": "static/dataset/coco_val_set/810.jpg", "page_name": "810_d_0.html/", "counterbalance": 0, "groundtruth": "machine", "human_groundtruth": "", "response_gender": "male"}}, "Trial_118": {"workerID": "AGNJKSH5LFKXZ", "workerData": {"country": "United States", "age": "41-45", "engagement": "10", "difficulty": "6", "mode": "live", "gender": "male", "education": "bachelor", "condition": 0, "native": "yes"}, "trialData": {"rt": 13893, "hit": "405", "trial": 18, "response_speaker": "human", "machine_groundtruth": "azure", "imageID": "static/dataset/coco_val_set/405.jpg", "page_name": "405_b_0.html/", "counterbalance": 0, "groundtruth": "machine", "human_groundtruth": "", "response_gender": "female"}}, "Trial_119": {"workerID": "AGNJKSH5LFKXZ", "workerData": {"country": "United States", "age": "41-45", "engagement": "10", "difficulty": "6", "mode": "live", "gender": "male", "education": "bachelor", "condition": 0, "native": "yes"}, "trialData": {"rt": 10490, "hit": "240", "trial": 19, "response_speaker": "machine", "machine_groundtruth": "rekognition", "imageID": "static/dataset/coco_val_set/240.jpg", "page_name": "240_e_0.html/", "counterbalance": 0, "groundtruth": "machine", "human_groundtruth": "", "response_gender": "female"}}, "Trial_120": {"workerID": "AGNJKSH5LFKXZ", "workerData": {"country": "United States", "age": "41-45", "engagement": "10", "difficulty": "6", "mode": "live", "gender": "male", "education": "bachelor", "condition": 0, "native": "yes"}, "trialData": {"rt": 22551, "hit": "722", "trial": 20, "response_speaker": "machine", "machine_groundtruth": "", "imageID": "static/dataset/coco_val_set/722.jpg", "page_name": "722_a_0.html/", "counterbalance": 0, "groundtruth": "human", "human_groundtruth": "human", "response_gender": "female"}}, "Trial_121": {"workerID": "AGNJKSH5LFKXZ", "workerData": {"country": "United States", "age": "41-45", "engagement": "10", "difficulty": "6", "mode": "live", "gender": "male", "education": "bachelor", "condition": 0, "native": "yes"}, "trialData": {"rt": 12555, "hit": "4415", "trial": 21, "response_speaker": "human", "machine_groundtruth": "detectron", "imageID": "static/dataset/coco_val_set/4415.jpg", "page_name": "4415_c_0.html/", "counterbalance": 0, "groundtruth": "machine", "human_groundtruth": "", "response_gender": "female"}}, "Trial_122": {"workerID": "AGNJKSH5LFKXZ", "workerData": {"country": "United States", "age": "41-45", "engagement": "10", "difficulty": "6", "mode": "live", "gender": "male", "education": "bachelor", "condition": 0, "native": "yes"}, "trialData": {"rt": 15113, "hit": "130", "trial": 22, "response_speaker": "machine", "machine_groundtruth": "rekognition", "imageID": "static/dataset/coco_val_set/130.jpg", "page_name": "130_e_0.html/", "counterbalance": 0, "groundtruth": "machine", "human_groundtruth": "", "response_gender": "male"}}, "Trial_123": {"workerID": "AGNJKSH5LFKXZ", "workerData": {"country": "United States", "age": "41-45", "engagement": "10", "difficulty": "6", "mode": "live", "gender": "male", "education": "bachelor", "condition": 0, "native": "yes"}, "trialData": {"rt": 14382, "hit": "448", "trial": 23, "response_speaker": "human", "machine_groundtruth": "rekognition", "imageID": "static/dataset/coco_val_set/448.jpg", "page_name": "448_e_0.html/", "counterbalance": 0, "groundtruth": "machine", "human_groundtruth": "", "response_gender": "female"}}, "Trial_124": {"workerID": "AGNJKSH5LFKXZ", "workerData": {"country": "United States", "age": "41-45", "engagement": "10", "difficulty": "6", "mode": "live", "gender": "male", "education": "bachelor", "condition": 0, "native": "yes"}, "trialData": {"rt": 10201, "hit": "96", "trial": 24, "response_speaker": "human", "machine_groundtruth": "", "imageID": "static/dataset/coco_val_set/96.jpg", "page_name": "96_a_0.html/", "counterbalance": 0, "groundtruth": "human", "human_groundtruth": "human", "response_gender": "female"}}, "Trial_125": {"workerID": "AGNJKSH5LFKXZ", "workerData": {"country": "United States", "age": "41-45", "engagement": "10", "difficulty": "6", "mode": "live", "gender": "male", "education": "bachelor", "condition": 0, "native": "yes"}, "trialData": {"rt": 11140, "hit": "752", "trial": 25, "response_speaker": "human", "machine_groundtruth": "azure", "imageID": "static/dataset/coco_val_set/752.jpg", "page_name": "752_b_0.html/", "counterbalance": 0, "groundtruth": "machine", "human_groundtruth": "", "response_gender": "female"}}, "Trial_126": {"workerID": "ATR6RB1RULOC0", "workerData": {"country": "United States", "age": "45-50", "engagement": "7", "difficulty": "3", "mode": "live", "gender": "female", "education": "high school", "condition": 0, "native": "yes"}, "trialData": {"rt": 14305, "hit": "864", "trial": 1, "response_speaker": "human", "machine_groundtruth": "azure", "imageID": "static/dataset/coco_val_set/864.jpg", "page_name": "864_b_0.html/", "counterbalance": 0, "groundtruth": "machine", "human_groundtruth": "", "response_gender": "female"}}, "Trial_127": {"workerID": "ATR6RB1RULOC0", "workerData": {"country": "United States", "age": "45-50", "engagement": "7", "difficulty": "3", "mode": "live", "gender": "female", "education": "high school", "condition": 0, "native": "yes"}, "trialData": {"rt": 10544, "hit": "4707", "trial": 2, "response_speaker": "human", "machine_groundtruth": "detectron", "imageID": "static/dataset/coco_val_set/4707.jpg", "page_name": "4707_c_0.html/", "counterbalance": 0, "groundtruth": "machine", "human_groundtruth": "", "response_gender": "female"}}, "Trial_128": {"workerID": "ATR6RB1RULOC0", "workerData": {"country": "United States", "age": "45-50", "engagement": "7", "difficulty": "3", "mode": "live", "gender": "female", "education": "high school", "condition": 0, "native": "yes"}, "trialData": {"rt": 29539, "hit": "39", "trial": 3, "response_speaker": "machine", "machine_groundtruth": "google", "imageID": "static/dataset/coco_val_set/39.jpg", "page_name": "39_d_0.html/", "counterbalance": 0, "groundtruth": "machine", "human_groundtruth": "", "response_gender": "male"}}, "Trial_130": {"workerID": "ATR6RB1RULOC0", "workerData": {"country": "United States", "age": "45-50", "engagement": "7", "difficulty": "3", "mode": "live", "gender": "female", "education": "high school", "condition": 0, "native": "yes"}, "trialData": {"rt": 12356, "hit": "597", "trial": 5, "response_speaker": "machine", "machine_groundtruth": "azure", "imageID": "static/dataset/coco_val_set/597.jpg", "page_name": "597_b_0.html/", "counterbalance": 0, "groundtruth": "machine", "human_groundtruth": "", "response_gender": "male"}}, "Trial_131": {"workerID": "ATR6RB1RULOC0", "workerData": {"country": "United States", "age": "45-50", "engagement": "7", "difficulty": "3", "mode": "live", "gender": "female", "education": "high school", "condition": 0, "native": "yes"}, "trialData": {"rt": 8650, "hit": "44", "trial": 6, "response_speaker": "human", "machine_groundtruth": "", "imageID": "static/dataset/coco_val_set/44.jpg", "page_name": "44_a_0.html/", "counterbalance": 0, "groundtruth": "human", "human_groundtruth": "human", "response_gender": "male"}}, "Trial_132": {"workerID": "ATR6RB1RULOC0", "workerData": {"country": "United States", "age": "45-50", "engagement": "7", "difficulty": "3", "mode": "live", "gender": "female", "education": "high school", "condition": 0, "native": "yes"}, "trialData": {"rt": 13812, "hit": "19", "trial": 7, "response_speaker": "human", "machine_groundtruth": "detectron", "imageID": "static/dataset/coco_val_set/19.jpg", "page_name": "19_c_0.html/", "counterbalance": 0, "groundtruth": "machine", "human_groundtruth": "", "response_gender": "female"}}, "Trial_133": {"workerID": "ATR6RB1RULOC0", "workerData": {"country": "United States", "age": "45-50", "engagement": "7", "difficulty": "3", "mode": "live", "gender": "female", "education": "high school", "condition": 0, "native": "yes"}, "trialData": {"rt": 13222, "hit": "696", "trial": 8, "response_speaker": "human", "machine_groundtruth": "rekognition", "imageID": "static/dataset/coco_val_set/696.jpg", "page_name": "696_e_0.html/", "counterbalance": 0, "groundtruth": "machine", "human_groundtruth": "", "response_gender": "female"}}, "Trial_134": {"workerID": "ATR6RB1RULOC0", "workerData": {"country": "United States", "age": "45-50", "engagement": "7", "difficulty": "3", "mode": "live", "gender": "female", "education": "high school", "condition": 0, "native": "yes"}, "trialData": {"rt": 18860, "hit": "16", "trial": 9, "response_speaker": "human", "machine_groundtruth": "", "imageID": "static/dataset/coco_val_set/16.jpg", "page_name": "16_a_0.html/", "counterbalance": 0, "groundtruth": "human", "human_groundtruth": "human", "response_gender": "male"}}, "Trial_135": {"workerID": "ATR6RB1RULOC0", "workerData": {"country": "United States", "age": "45-50", "engagement": "7", "difficulty": "3", "mode": "live", "gender": "female", "education": "high school", "condition": 0, "native": "yes"}, "trialData": {"rt": 11377, "hit": "808", "trial": 10, "response_speaker": "human", "machine_groundtruth": "detectron", "imageID": "static/dataset/coco_val_set/808.jpg", "page_name": "808_c_0.html/", "counterbalance": 0, "groundtruth": "machine", "human_groundtruth": "", "response_gender": "male"}}, "Trial_136": {"workerID": "ATR6RB1RULOC0", "workerData": {"country": "United States", "age": "45-50", "engagement": "7", "difficulty": "3", "mode": "live", "gender": "female", "education": "high school", "condition": 0, "native": "yes"}, "trialData": {"rt": 17557, "hit": "35", "trial": 11, "response_speaker": "human", "machine_groundtruth": "", "imageID": "static/dataset/coco_val_set/35.jpg", "page_name": "35_a_0.html/", "counterbalance": 0, "groundtruth": "human", "human_groundtruth": "human", "response_gender": "female"}}, "Trial_137": {"workerID": "ATR6RB1RULOC0", "workerData": {"country": "United States", "age": "45-50", "engagement": "7", "difficulty": "3", "mode": "live", "gender": "female", "education": "high school", "condition": 0, "native": "yes"}, "trialData": {"rt": 13644, "hit": "471", "trial": 12, "response_speaker": "machine", "machine_groundtruth": "", "imageID": "static/dataset/coco_val_set/471.jpg", "page_name": "471_a_0.html/", "counterbalance": 0, "groundtruth": "human", "human_groundtruth": "human", "response_gender": "female"}}, "Trial_138": {"workerID": "ATR6RB1RULOC0", "workerData": {"country": "United States", "age": "45-50", "engagement": "7", "difficulty": "3", "mode": "live", "gender": "female", "education": "high school", "condition": 0, "native": "yes"}, "trialData": {"rt": 13250, "hit": "648", "trial": 13, "response_speaker": "machine", "machine_groundtruth": "google", "imageID": "static/dataset/coco_val_set/648.jpg", "page_name": "648_d_0.html/", "counterbalance": 0, "groundtruth": "machine", "human_groundtruth": "", "response_gender": "male"}}, "Trial_139": {"workerID": "ATR6RB1RULOC0", "workerData": {"country": "United States", "age": "45-50", "engagement": "7", "difficulty": "3", "mode": "live", "gender": "female", "education": "high school", "condition": 0, "native": "yes"}, "trialData": {"rt": 21731, "hit": "493", "trial": 14, "response_speaker": "machine", "machine_groundtruth": "detectron", "imageID": "static/dataset/coco_val_set/493.jpg", "page_name": "493_c_0.html/", "counterbalance": 0, "groundtruth": "machine", "human_groundtruth": "", "response_gender": "male"}}, "Trial_140": {"workerID": "ATR6RB1RULOC0", "workerData": {"country": "United States", "age": "45-50", "engagement": "7", "difficulty": "3", "mode": "live", "gender": "female", "education": "high school", "condition": 0, "native": "yes"}, "trialData": {"rt": 15486, "hit": "909", "trial": 15, "response_speaker": "machine", "machine_groundtruth": "rekognition", "imageID": "static/dataset/coco_val_set/909.jpg", "page_name": "909_e_0.html/", "counterbalance": 0, "groundtruth": "machine", "human_groundtruth": "", "response_gender": "male"}}, "Trial_141": {"workerID": "ATR6RB1RULOC0", "workerData": {"country": "United States", "age": "45-50", "engagement": "7", "difficulty": "3", "mode": "live", "gender": "female", "education": "high school", "condition": 0, "native": "yes"}, "trialData": {"rt": 19071, "hit": "275", "trial": 16, "response_speaker": "human", "machine_groundtruth": "", "imageID": "static/dataset/coco_val_set/275.jpg", "page_name": "275_a_0.html/", "counterbalance": 0, "groundtruth": "human", "human_groundtruth": "human", "response_gender": "female"}}, "Trial_143": {"workerID": "ATR6RB1RULOC0", "workerData": {"country": "United States", "age": "45-50", "engagement": "7", "difficulty": "3", "mode": "live", "gender": "female", "education": "high school", "condition": 0, "native": "yes"}, "trialData": {"rt": 15524, "hit": "365", "trial": 18, "response_speaker": "machine", "machine_groundtruth": "rekognition", "imageID": "static/dataset/coco_val_set/365.jpg", "page_name": "365_e_0.html/", "counterbalance": 0, "groundtruth": "machine", "human_groundtruth": "", "response_gender": "male"}}, "Trial_144": {"workerID": "ATR6RB1RULOC0", "workerData": {"country": "United States", "age": "45-50", "engagement": "7", "difficulty": "3", "mode": "live", "gender": "female", "education": "high school", "condition": 0, "native": "yes"}, "trialData": {"rt": 15310, "hit": "479", "trial": 19, "response_speaker": "machine", "machine_groundtruth": "", "imageID": "static/dataset/coco_val_set/479.jpg", "page_name": "479_a_0.html/", "counterbalance": 0, "groundtruth": "human", "human_groundtruth": "human", "response_gender": "male"}}, "Trial_145": {"workerID": "ATR6RB1RULOC0", "workerData": {"country": "United States", "age": "45-50", "engagement": "7", "difficulty": "3", "mode": "live", "gender": "female", "education": "high school", "condition": 0, "native": "yes"}, "trialData": {"rt": 23759, "hit": "651", "trial": 20, "response_speaker": "machine", "machine_groundtruth": "azure", "imageID": "static/dataset/coco_val_set/651.jpg", "page_name": "651_b_0.html/", "counterbalance": 0, "groundtruth": "machine", "human_groundtruth": "", "response_gender": "male"}}, "Trial_146": {"workerID": "ATR6RB1RULOC0", "workerData": {"country": "United States", "age": "45-50", "engagement": "7", "difficulty": "3", "mode": "live", "gender": "female", "education": "high school", "condition": 0, "native": "yes"}, "trialData": {"rt": 17517, "hit": "3703", "trial": 21, "response_speaker": "machine", "machine_groundtruth": "", "imageID": "static/dataset/coco_val_set/3703.jpg", "page_name": "3703_a_0.html/", "counterbalance": 0, "groundtruth": "human", "human_groundtruth": "human", "response_gender": "female"}}, "Trial_147": {"workerID": "ATR6RB1RULOC0", "workerData": {"country": "United States", "age": "45-50", "engagement": "7", "difficulty": "3", "mode": "live", "gender": "female", "education": "high school", "condition": 0, "native": "yes"}, "trialData": {"rt": 10656, "hit": "499", "trial": 22, "response_speaker": "machine", "machine_groundtruth": "rekognition", "imageID": "static/dataset/coco_val_set/499.jpg", "page_name": "499_e_0.html/", "counterbalance": 0, "groundtruth": "machine", "human_groundtruth": "", "response_gender": "male"}}, "Trial_148": {"workerID": "ATR6RB1RULOC0", "workerData": {"country": "United States", "age": "45-50", "engagement": "7", "difficulty": "3", "mode": "live", "gender": "female", "education": "high school", "condition": 0, "native": "yes"}, "trialData": {"rt": 22786, "hit": "55", "trial": 23, "response_speaker": "human", "machine_groundtruth": "", "imageID": "static/dataset/coco_val_set/55.jpg", "page_name": "55_a_0.html/", "counterbalance": 0, "groundtruth": "human", "human_groundtruth": "human", "response_gender": "female"}}, "Trial_149": {"workerID": "ATR6RB1RULOC0", "workerData": {"country": "United States", "age": "45-50", "engagement": "7", "difficulty": "3", "mode": "live", "gender": "female", "education": "high school", "condition": 0, "native": "yes"}, "trialData": {"rt": 14437, "hit": "4487", "trial": 24, "response_speaker": "human", "machine_groundtruth": "", "imageID": "static/dataset/coco_val_set/4487.jpg", "page_name": "4487_a_0.html/", "counterbalance": 0, "groundtruth": "human", "human_groundtruth": "human", "response_gender": "female"}}, "Trial_150": {"workerID": "ATR6RB1RULOC0", "workerData": {"country": "United States", "age": "45-50", "engagement": "7", "difficulty": "3", "mode": "live", "gender": "female", "education": "high school", "condition": 0, "native": "yes"}, "trialData": {"rt": 20452, "hit": "369", "trial": 25, "response_speaker": "machine", "machine_groundtruth": "google", "imageID": "static/dataset/coco_val_set/369.jpg", "page_name": "369_d_0.html/", "counterbalance": 0, "groundtruth": "machine", "human_groundtruth": "", "response_gender": "female"}}, "Trial_151": {"workerID": "A3ITZNJQUTIZ4C", "workerData": {"country": "United States", "age": "41-45", "engagement": "7", "difficulty": "3", "mode": "live", "gender": "female", "education": "high school", "condition": 0, "native": "yes"}, "trialData": {"rt": 29169, "hit": "599", "trial": 1, "response_speaker": "machine", "machine_groundtruth": "rekognition", "imageID": "static/dataset/coco_val_set/599.jpg", "page_name": "599_e_0.html/", "counterbalance": 0, "groundtruth": "machine", "human_groundtruth": "", "response_gender": "female"}}, "Trial_152": {"workerID": "A3ITZNJQUTIZ4C", "workerData": {"country": "United States", "age": "41-45", "engagement": "7", "difficulty": "3", "mode": "live", "gender": "female", "education": "high school", "condition": 0, "native": "yes"}, "trialData": {"rt": 23258, "hit": "4775", "trial": 2, "response_speaker": "machine", "machine_groundtruth": "azure", "imageID": "static/dataset/coco_val_set/4775.jpg", "page_name": "4775_b_0.html/", "counterbalance": 0, "groundtruth": "machine", "human_groundtruth": "", "response_gender": "male"}}, "Trial_153": {"workerID": "A3ITZNJQUTIZ4C", "workerData": {"country": "United States", "age": "41-45", "engagement": "7", "difficulty": "3", "mode": "live", "gender": "female", "education": "high school", "condition": 0, "native": "yes"}, "trialData": {"rt": 17723, "hit": "641", "trial": 3, "response_speaker": "machine", "machine_groundtruth": "", "imageID": "static/dataset/coco_val_set/641.jpg", "page_name": "641_a_0.html/", "counterbalance": 0, "groundtruth": "human", "human_groundtruth": "human", "response_gender": "male"}}, "Trial_154": {"workerID": "A3ITZNJQUTIZ4C", "workerData": {"country": "United States", "age": "41-45", "engagement": "7", "difficulty": "3", "mode": "live", "gender": "female", "education": "high school", "condition": 0, "native": "yes"}, "trialData": {"rt": 28850, "hit": "609", "trial": 4, "response_speaker": "machine", "machine_groundtruth": "", "imageID": "static/dataset/coco_val_set/609.jpg", "page_name": "609_a_0.html/", "counterbalance": 0, "groundtruth": "human", "human_groundtruth": "human", "response_gender": "female"}}, "Trial_155": {"workerID": "A3ITZNJQUTIZ4C", "workerData": {"country": "United States", "age": "41-45", "engagement": "7", "difficulty": "3", "mode": "live", "gender": "female", "education": "high school", "condition": 0, "native": "yes"}, "trialData": {"rt": 37094, "hit": "2526", "trial": 5, "response_speaker": "machine", "machine_groundtruth": "detectron", "imageID": "static/dataset/coco_val_set/2526.jpg", "page_name": "2526_c_0.html/", "counterbalance": 0, "groundtruth": "machine", "human_groundtruth": "", "response_gender": "female"}}, "Trial_156": {"workerID": "A3ITZNJQUTIZ4C", "workerData": {"country": "United States", "age": "41-45", "engagement": "7", "difficulty": "3", "mode": "live", "gender": "female", "education": "high school", "condition": 0, "native": "yes"}, "trialData": {"rt": 48197, "hit": "2557", "trial": 6, "response_speaker": "machine", "machine_groundtruth": "azure", "imageID": "static/dataset/coco_val_set/2557.jpg", "page_name": "2557_b_0.html/", "counterbalance": 0, "groundtruth": "machine", "human_groundtruth": "", "response_gender": "male"}}, "Trial_157": {"workerID": "A3ITZNJQUTIZ4C", "workerData": {"country": "United States", "age": "41-45", "engagement": "7", "difficulty": "3", "mode": "live", "gender": "female", "education": "high school", "condition": 0, "native": "yes"}, "trialData": {"rt": 14190, "hit": "480", "trial": 7, "response_speaker": "machine", "machine_groundtruth": "google", "imageID": "static/dataset/coco_val_set/480.jpg", "page_name": "480_d_0.html/", "counterbalance": 0, "groundtruth": "machine", "human_groundtruth": "", "response_gender": "male"}}, "Trial_158": {"workerID": "A3ITZNJQUTIZ4C", "workerData": {"country": "United States", "age": "41-45", "engagement": "7", "difficulty": "3", "mode": "live", "gender": "female", "education": "high school", "condition": 0, "native": "yes"}, "trialData": {"rt": 11217, "hit": "115", "trial": 8, "response_speaker": "human", "machine_groundtruth": "", "imageID": "static/dataset/coco_val_set/115.jpg", "page_name": "115_a_0.html/", "counterbalance": 0, "groundtruth": "human", "human_groundtruth": "human", "response_gender": "female"}}, "Trial_160": {"workerID": "A3ITZNJQUTIZ4C", "workerData": {"country": "United States", "age": "41-45", "engagement": "7", "difficulty": "3", "mode": "live", "gender": "female", "education": "high school", "condition": 0, "native": "yes"}, "trialData": {"rt": 9934, "hit": "458", "trial": 10, "response_speaker": "human", "machine_groundtruth": "", "imageID": "static/dataset/coco_val_set/458.jpg", "page_name": "458_a_0.html/", "counterbalance": 0, "groundtruth": "human", "human_groundtruth": "human", "response_gender": "male"}}, "Trial_161": {"workerID": "A3ITZNJQUTIZ4C", "workerData": {"country": "United States", "age": "41-45", "engagement": "7", "difficulty": "3", "mode": "live", "gender": "female", "education": "high school", "condition": 0, "native": "yes"}, "trialData": {"rt": 7798, "hit": "167", "trial": 11, "response_speaker": "human", "machine_groundtruth": "detectron", "imageID": "static/dataset/coco_val_set/167.jpg", "page_name": "167_c_0.html/", "counterbalance": 0, "groundtruth": "machine", "human_groundtruth": "", "response_gender": "female"}}, "Trial_162": {"workerID": "A3ITZNJQUTIZ4C", "workerData": {"country": "United States", "age": "41-45", "engagement": "7", "difficulty": "3", "mode": "live", "gender": "female", "education": "high school", "condition": 0, "native": "yes"}, "trialData": {"rt": 11572, "hit": "292", "trial": 12, "response_speaker": "machine", "machine_groundtruth": "google", "imageID": "static/dataset/coco_val_set/292.jpg", "page_name": "292_d_0.html/", "counterbalance": 0, "groundtruth": "machine", "human_groundtruth": "", "response_gender": "male"}}, "Trial_163": {"workerID": "A3ITZNJQUTIZ4C", "workerData": {"country": "United States", "age": "41-45", "engagement": "7", "difficulty": "3", "mode": "live", "gender": "female", "education": "high school", "condition": 0, "native": "yes"}, "trialData": {"rt": 11745, "hit": "839", "trial": 13, "response_speaker": "machine", "machine_groundtruth": "azure", "imageID": "static/dataset/coco_val_set/839.jpg", "page_name": "839_b_0.html/", "counterbalance": 0, "groundtruth": "machine", "human_groundtruth": "", "response_gender": "female"}}, "Trial_164": {"workerID": "A3ITZNJQUTIZ4C", "workerData": {"country": "United States", "age": "41-45", "engagement": "7", "difficulty": "3", "mode": "live", "gender": "female", "education": "high school", "condition": 0, "native": "yes"}, "trialData": {"rt": 71855, "hit": "119", "trial": 14, "response_speaker": "machine", "machine_groundtruth": "detectron", "imageID": "static/dataset/coco_val_set/119.jpg", "page_name": "119_c_0.html/", "counterbalance": 0, "groundtruth": "machine", "human_groundtruth": "", "response_gender": "male"}}, "Trial_165": {"workerID": "A3ITZNJQUTIZ4C", "workerData": {"country": "United States", "age": "41-45", "engagement": "7", "difficulty": "3", "mode": "live", "gender": "female", "education": "high school", "condition": 0, "native": "yes"}, "trialData": {"rt": 9700, "hit": "451", "trial": 15, "response_speaker": "machine", "machine_groundtruth": "azure", "imageID": "static/dataset/coco_val_set/451.jpg", "page_name": "451_b_0.html/", "counterbalance": 0, "groundtruth": "machine", "human_groundtruth": "", "response_gender": "male"}}, "Trial_166": {"workerID": "A3ITZNJQUTIZ4C", "workerData": {"country": "United States", "age": "41-45", "engagement": "7", "difficulty": "3", "mode": "live", "gender": "female", "education": "high school", "condition": 0, "native": "yes"}, "trialData": {"rt": 9027, "hit": "701", "trial": 16, "response_speaker": "machine", "machine_groundtruth": "", "imageID": "static/dataset/coco_val_set/701.jpg", "page_name": "701_a_0.html/", "counterbalance": 0, "groundtruth": "human", "human_groundtruth": "human", "response_gender": "male"}}, "Trial_167": {"workerID": "A3ITZNJQUTIZ4C", "workerData": {"country": "United States", "age": "41-45", "engagement": "7", "difficulty": "3", "mode": "live", "gender": "female", "education": "high school", "condition": 0, "native": "yes"}, "trialData": {"rt": 581876, "hit": "588", "trial": 17, "response_speaker": "machine", "machine_groundtruth": "", "imageID": "static/dataset/coco_val_set/588.jpg", "page_name": "588_a_0.html/", "counterbalance": 0, "groundtruth": "human", "human_groundtruth": "human", "response_gender": "male"}}, "Trial_168": {"workerID": "A3ITZNJQUTIZ4C", "workerData": {"country": "United States", "age": "41-45", "engagement": "7", "difficulty": "3", "mode": "live", "gender": "female", "education": "high school", "condition": 0, "native": "yes"}, "trialData": {"rt": 74824, "hit": "2532", "trial": 18, "response_speaker": "human", "machine_groundtruth": "", "imageID": "static/dataset/coco_val_set/2532.jpg", "page_name": "2532_a_0.html/", "counterbalance": 0, "groundtruth": "human", "human_groundtruth": "human", "response_gender": "female"}}, "Trial_169": {"workerID": "A3ITZNJQUTIZ4C", "workerData": {"country": "United States", "age": "41-45", "engagement": "7", "difficulty": "3", "mode": "live", "gender": "female", "education": "high school", "condition": 0, "native": "yes"}, "trialData": {"rt": 18135, "hit": "4581", "trial": 19, "response_speaker": "human", "machine_groundtruth": "detectron", "imageID": "static/dataset/coco_val_set/4581.jpg", "page_name": "4581_c_0.html/", "counterbalance": 0, "groundtruth": "machine", "human_groundtruth": "", "response_gender": "female"}}, "Trial_170": {"workerID": "A3ITZNJQUTIZ4C", "workerData": {"country": "United States", "age": "41-45", "engagement": "7", "difficulty": "3", "mode": "live", "gender": "female", "education": "high school", "condition": 0, "native": "yes"}, "trialData": {"rt": 36709, "hit": "179", "trial": 20, "response_speaker": "human", "machine_groundtruth": "", "imageID": "static/dataset/coco_val_set/179.jpg", "page_name": "179_a_0.html/", "counterbalance": 0, "groundtruth": "human", "human_groundtruth": "human", "response_gender": "male"}}, "Trial_171": {"workerID": "A3ITZNJQUTIZ4C", "workerData": {"country": "United States", "age": "41-45", "engagement": "7", "difficulty": "3", "mode": "live", "gender": "female", "education": "high school", "condition": 0, "native": "yes"}, "trialData": {"rt": 18199, "hit": "430", "trial": 21, "response_speaker": "machine", "machine_groundtruth": "azure", "imageID": "static/dataset/coco_val_set/430.jpg", "page_name": "430_b_0.html/", "counterbalance": 0, "groundtruth": "machine", "human_groundtruth": "", "response_gender": "female"}}, "Trial_172": {"workerID": "A3ITZNJQUTIZ4C", "workerData": {"country": "United States", "age": "41-45", "engagement": "7", "difficulty": "3", "mode": "live", "gender": "female", "education": "high school", "condition": 0, "native": "yes"}, "trialData": {"rt": 10122, "hit": "3976", "trial": 22, "response_speaker": "machine", "machine_groundtruth": "azure", "imageID": "static/dataset/coco_val_set/3976.jpg", "page_name": "3976_b_0.html/", "counterbalance": 0, "groundtruth": "machine", "human_groundtruth": "", "response_gender": "male"}}, "Trial_173": {"workerID": "A3ITZNJQUTIZ4C", "workerData": {"country": "United States", "age": "41-45", "engagement": "7", "difficulty": "3", "mode": "live", "gender": "female", "education": "high school", "condition": 0, "native": "yes"}, "trialData": {"rt": 16411, "hit": "345", "trial": 23, "response_speaker": "machine", "machine_groundtruth": "", "imageID": "static/dataset/coco_val_set/345.jpg", "page_name": "345_a_0.html/", "counterbalance": 0, "groundtruth": "human", "human_groundtruth": "human", "response_gender": "male"}}, "Trial_174": {"workerID": "A3ITZNJQUTIZ4C", "workerData": {"country": "United States", "age": "41-45", "engagement": "7", "difficulty": "3", "mode": "live", "gender": "female", "education": "high school", "condition": 0, "native": "yes"}, "trialData": {"rt": 9570, "hit": "863", "trial": 24, "response_speaker": "machine", "machine_groundtruth": "", "imageID": "static/dataset/coco_val_set/863.jpg", "page_name": "863_a_0.html/", "counterbalance": 0, "groundtruth": "human", "human_groundtruth": "human", "response_gender": "male"}}, "Trial_175": {"workerID": "A3ITZNJQUTIZ4C", "workerData": {"country": "United States", "age": "41-45", "engagement": "7", "difficulty": "3", "mode": "live", "gender": "female", "education": "high school", "condition": 0, "native": "yes"}, "trialData": {"rt": 12356, "hit": "143", "trial": 25, "response_speaker": "machine", "machine_groundtruth": "", "imageID": "static/dataset/coco_val_set/143.jpg", "page_name": "143_a_0.html/", "counterbalance": 0, "groundtruth": "human", "human_groundtruth": "human", "response_gender": "male"}}, "Trial_176": {"workerID": "ARJ6SPCZJVARE", "workerData": {"country": "United States", "age": "31-35", "engagement": "7", "difficulty": "6", "mode": "live", "gender": "male", "education": "high school", "condition": 0, "native": "yes"}, "trialData": {"rt": 8816, "hit": "990", "trial": 1, "response_speaker": "machine", "machine_groundtruth": "", "imageID": "static/dataset/coco_val_set/990.jpg", "page_name": "990_a_0.html/", "counterbalance": 0, "groundtruth": "human", "human_groundtruth": "human", "response_gender": "female"}}, "Trial_177": {"workerID": "ARJ6SPCZJVARE", "workerData": {"country": "United States", "age": "31-35", "engagement": "7", "difficulty": "6", "mode": "live", "gender": "male", "education": "high school", "condition": 0, "native": "yes"}, "trialData": {"rt": 14880, "hit": "668", "trial": 2, "response_speaker": "machine", "machine_groundtruth": "", "imageID": "static/dataset/coco_val_set/668.jpg", "page_name": "668_a_0.html/", "counterbalance": 0, "groundtruth": "human", "human_groundtruth": "human", "response_gender": "female"}}, "Trial_178": {"workerID": "ARJ6SPCZJVARE", "workerData": {"country": "United States", "age": "31-35", "engagement": "7", "difficulty": "6", "mode": "live", "gender": "male", "education": "high school", "condition": 0, "native": "yes"}, "trialData": {"rt": 5553, "hit": "764", "trial": 3, "response_speaker": "machine", "machine_groundtruth": "", "imageID": "static/dataset/coco_val_set/764.jpg", "page_name": "764_a_0.html/", "counterbalance": 0, "groundtruth": "human", "human_groundtruth": "human", "response_gender": "female"}}, "Trial_179": {"workerID": "ARJ6SPCZJVARE", "workerData": {"country": "United States", "age": "31-35", "engagement": "7", "difficulty": "6", "mode": "live", "gender": "male", "education": "high school", "condition": 0, "native": "yes"}, "trialData": {"rt": 5545, "hit": "641", "trial": 4, "response_speaker": "machine", "machine_groundtruth": "", "imageID": "static/dataset/coco_val_set/641.jpg", "page_name": "641_a_0.html/", "counterbalance": 0, "groundtruth": "human", "human_groundtruth": "human", "response_gender": "female"}}, "Trial_180": {"workerID": "ARJ6SPCZJVARE", "workerData": {"country": "United States", "age": "31-35", "engagement": "7", "difficulty": "6", "mode": "live", "gender": "male", "education": "high school", "condition": 0, "native": "yes"}, "trialData": {"rt": 7308, "hit": "539", "trial": 5, "response_speaker": "machine", "machine_groundtruth": "", "imageID": "static/dataset/coco_val_set/539.jpg", "page_name": "539_a_0.html/", "counterbalance": 0, "groundtruth": "human", "human_groundtruth": "human", "response_gender": "female"}}, "Trial_181": {"workerID": "ARJ6SPCZJVARE", "workerData": {"country": "United States", "age": "31-35", "engagement": "7", "difficulty": "6", "mode": "live", "gender": "male", "education": "high school", "condition": 0, "native": "yes"}, "trialData": {"rt": 5138, "hit": "1249", "trial": 6, "response_speaker": "machine", "machine_groundtruth": "rekognition", "imageID": "static/dataset/coco_val_set/1249.jpg", "page_name": "1249_e_0.html/", "counterbalance": 0, "groundtruth": "machine", "human_groundtruth": "", "response_gender": "female"}}, "Trial_182": {"workerID": "ARJ6SPCZJVARE", "workerData": {"country": "United States", "age": "31-35", "engagement": "7", "difficulty": "6", "mode": "live", "gender": "male", "education": "high school", "condition": 0, "native": "yes"}, "trialData": {"rt": 7557, "hit": "309", "trial": 7, "response_speaker": "machine", "machine_groundtruth": "rekognition", "imageID": "static/dataset/coco_val_set/309.jpg", "page_name": "309_e_0.html/", "counterbalance": 0, "groundtruth": "machine", "human_groundtruth": "", "response_gender": "female"}}, "Trial_183": {"workerID": "ARJ6SPCZJVARE", "workerData": {"country": "United States", "age": "31-35", "engagement": "7", "difficulty": "6", "mode": "live", "gender": "male", "education": "high school", "condition": 0, "native": "yes"}, "trialData": {"rt": 4291, "hit": "474", "trial": 8, "response_speaker": "machine", "machine_groundtruth": "", "imageID": "static/dataset/coco_val_set/474.jpg", "page_name": "474_a_0.html/", "counterbalance": 0, "groundtruth": "human", "human_groundtruth": "human", "response_gender": "female"}}, "Trial_184": {"workerID": "ARJ6SPCZJVARE", "workerData": {"country": "United States", "age": "31-35", "engagement": "7", "difficulty": "6", "mode": "live", "gender": "male", "education": "high school", "condition": 0, "native": "yes"}, "trialData": {"rt": 5690, "hit": "29", "trial": 9, "response_speaker": "machine", "machine_groundtruth": "", "imageID": "static/dataset/coco_val_set/29.jpg", "page_name": "29_a_0.html/", "counterbalance": 0, "groundtruth": "human", "human_groundtruth": "human", "response_gender": "female"}}, "Trial_185": {"workerID": "ARJ6SPCZJVARE", "workerData": {"country": "United States", "age": "31-35", "engagement": "7", "difficulty": "6", "mode": "live", "gender": "male", "education": "high school", "condition": 0, "native": "yes"}, "trialData": {"rt": 8641, "hit": "488", "trial": 10, "response_speaker": "machine", "machine_groundtruth": "", "imageID": "static/dataset/coco_val_set/488.jpg", "page_name": "488_a_0.html/", "counterbalance": 0, "groundtruth": "human", "human_groundtruth": "human", "response_gender": "female"}}, "Trial_186": {"workerID": "ARJ6SPCZJVARE", "workerData": {"country": "United States", "age": "31-35", "engagement": "7", "difficulty": "6", "mode": "live", "gender": "male", "education": "high school", "condition": 0, "native": "yes"}, "trialData": {"rt": 5702, "hit": "4415", "trial": 11, "response_speaker": "machine", "machine_groundtruth": "", "imageID": "static/dataset/coco_val_set/4415.jpg", "page_name": "4415_a_0.html/", "counterbalance": 0, "groundtruth": "human", "human_groundtruth": "human", "response_gender": "male"}}, "Trial_188": {"workerID": "ARJ6SPCZJVARE", "workerData": {"country": "United States", "age": "31-35", "engagement": "7", "difficulty": "6", "mode": "live", "gender": "male", "education": "high school", "condition": 0, "native": "yes"}, "trialData": {"rt": 5421, "hit": "570", "trial": 13, "response_speaker": "machine", "machine_groundtruth": "detectron", "imageID": "static/dataset/coco_val_set/570.jpg", "page_name": "570_c_0.html/", "counterbalance": 0, "groundtruth": "machine", "human_groundtruth": "", "response_gender": "male"}}, "Trial_189": {"workerID": "ARJ6SPCZJVARE", "workerData": {"country": "United States", "age": "31-35", "engagement": "7", "difficulty": "6", "mode": "live", "gender": "male", "education": "high school", "condition": 0, "native": "yes"}, "trialData": {"rt": 5954, "hit": "241", "trial": 14, "response_speaker": "machine", "machine_groundtruth": "", "imageID": "static/dataset/coco_val_set/241.jpg", "page_name": "241_a_0.html/", "counterbalance": 0, "groundtruth": "human", "human_groundtruth": "human", "response_gender": "male"}}, "Trial_190": {"workerID": "ARJ6SPCZJVARE", "workerData": {"country": "United States", "age": "31-35", "engagement": "7", "difficulty": "6", "mode": "live", "gender": "male", "education": "high school", "condition": 0, "native": "yes"}, "trialData": {"rt": 3591, "hit": "824", "trial": 15, "response_speaker": "machine", "machine_groundtruth": "rekognition", "imageID": "static/dataset/coco_val_set/824.jpg", "page_name": "824_e_0.html/", "counterbalance": 0, "groundtruth": "machine", "human_groundtruth": "", "response_gender": "male"}}, "Trial_191": {"workerID": "ARJ6SPCZJVARE", "workerData": {"country": "United States", "age": "31-35", "engagement": "7", "difficulty": "6", "mode": "live", "gender": "male", "education": "high school", "condition": 0, "native": "yes"}, "trialData": {"rt": 5068, "hit": "117", "trial": 16, "response_speaker": "machine", "machine_groundtruth": "detectron", "imageID": "static/dataset/coco_val_set/117.jpg", "page_name": "117_c_0.html/", "counterbalance": 0, "groundtruth": "machine", "human_groundtruth": "", "response_gender": "male"}}, "Trial_192": {"workerID": "ARJ6SPCZJVARE", "workerData": {"country": "United States", "age": "31-35", "engagement": "7", "difficulty": "6", "mode": "live", "gender": "male", "education": "high school", "condition": 0, "native": "yes"}, "trialData": {"rt": 4816, "hit": "2872", "trial": 17, "response_speaker": "machine", "machine_groundtruth": "rekognition", "imageID": "static/dataset/coco_val_set/2872.jpg", "page_name": "2872_e_0.html/", "counterbalance": 0, "groundtruth": "machine", "human_groundtruth": "", "response_gender": "male"}}, "Trial_193": {"workerID": "ARJ6SPCZJVARE", "workerData": {"country": "United States", "age": "31-35", "engagement": "7", "difficulty": "6", "mode": "live", "gender": "male", "education": "high school", "condition": 0, "native": "yes"}, "trialData": {"rt": 3853, "hit": "968", "trial": 18, "response_speaker": "machine", "machine_groundtruth": "azure", "imageID": "static/dataset/coco_val_set/968.jpg", "page_name": "968_b_0.html/", "counterbalance": 0, "groundtruth": "machine", "human_groundtruth": "", "response_gender": "male"}}, "Trial_194": {"workerID": "ARJ6SPCZJVARE", "workerData": {"country": "United States", "age": "31-35", "engagement": "7", "difficulty": "6", "mode": "live", "gender": "male", "education": "high school", "condition": 0, "native": "yes"}, "trialData": {"rt": 5023, "hit": "202", "trial": 19, "response_speaker": "machine", "machine_groundtruth": "rekognition", "imageID": "static/dataset/coco_val_set/202.jpg", "page_name": "202_e_0.html/", "counterbalance": 0, "groundtruth": "machine", "human_groundtruth": "", "response_gender": "male"}}, "Trial_195": {"workerID": "ARJ6SPCZJVARE", "workerData": {"country": "United States", "age": "31-35", "engagement": "7", "difficulty": "6", "mode": "live", "gender": "male", "education": "high school", "condition": 0, "native": "yes"}, "trialData": {"rt": 4140, "hit": "772", "trial": 20, "response_speaker": "machine", "machine_groundtruth": "azure", "imageID": "static/dataset/coco_val_set/772.jpg", "page_name": "772_b_0.html/", "counterbalance": 0, "groundtruth": "machine", "human_groundtruth": "", "response_gender": "male"}}, "Trial_196": {"workerID": "ARJ6SPCZJVARE", "workerData": {"country": "United States", "age": "31-35", "engagement": "7", "difficulty": "6", "mode": "live", "gender": "male", "education": "high school", "condition": 0, "native": "yes"}, "trialData": {"rt": 4254, "hit": "785", "trial": 21, "response_speaker": "machine", "machine_groundtruth": "rekognition", "imageID": "static/dataset/coco_val_set/785.jpg", "page_name": "785_e_0.html/", "counterbalance": 0, "groundtruth": "machine", "human_groundtruth": "", "response_gender": "male"}}, "Trial_197": {"workerID": "ARJ6SPCZJVARE", "workerData": {"country": "United States", "age": "31-35", "engagement": "7", "difficulty": "6", "mode": "live", "gender": "male", "education": "high school", "condition": 0, "native": "yes"}, "trialData": {"rt": 3933, "hit": "2173", "trial": 22, "response_speaker": "machine", "machine_groundtruth": "", "imageID": "static/dataset/coco_val_set/2173.jpg", "page_name": "2173_a_0.html/", "counterbalance": 0, "groundtruth": "human", "human_groundtruth": "human", "response_gender": "female"}}, "Trial_198": {"workerID": "ARJ6SPCZJVARE", "workerData": {"country": "United States", "age": "31-35", "engagement": "7", "difficulty": "6", "mode": "live", "gender": "male", "education": "high school", "condition": 0, "native": "yes"}, "trialData": {"rt": 4462, "hit": "194", "trial": 23, "response_speaker": "machine", "machine_groundtruth": "", "imageID": "static/dataset/coco_val_set/194.jpg", "page_name": "194_a_0.html/", "counterbalance": 0, "groundtruth": "human", "human_groundtruth": "human", "response_gender": "male"}}, "Trial_199": {"workerID": "ARJ6SPCZJVARE", "workerData": {"country": "United States", "age": "31-35", "engagement": "7", "difficulty": "6", "mode": "live", "gender": "male", "education": "high school", "condition": 0, "native": "yes"}, "trialData": {"rt": 5266, "hit": "639", "trial": 24, "response_speaker": "machine", "machine_groundtruth": "", "imageID": "static/dataset/coco_val_set/639.jpg", "page_name": "639_a_0.html/", "counterbalance": 0, "groundtruth": "human", "human_groundtruth": "human", "response_gender": "female"}}, "Trial_200": {"workerID": "ARJ6SPCZJVARE", "workerData": {"country": "United States", "age": "31-35", "engagement": "7", "difficulty": "6", "mode": "live", "gender": "male", "education": "high school", "condition": 0, "native": "yes"}, "trialData": {"rt": 5843, "hit": "19", "trial": 25, "response_speaker": "machine", "machine_groundtruth": "", "imageID": "static/dataset/coco_val_set/19.jpg", "page_name": "19_a_0.html/", "counterbalance": 0, "groundtruth": "human", "human_groundtruth": "human", "response_gender": "female"}}, "Trial_201": {"workerID": "A87D3K9YVKTQ7", "workerData": {"country": "United States", "age": "36-40", "engagement": "10", "difficulty": "0", "mode": "live", "gender": "female", "education": "bachelor", "condition": 0, "native": "yes"}, "trialData": {"rt": 23910, "hit": "539", "trial": 1, "response_speaker": "machine", "machine_groundtruth": "detectron", "imageID": "static/dataset/coco_val_set/539.jpg", "page_name": "539_c_0.html/", "counterbalance": 0, "groundtruth": "machine", "human_groundtruth": "", "response_gender": "female"}}, "Trial_202": {"workerID": "A87D3K9YVKTQ7", "workerData": {"country": "United States", "age": "36-40", "engagement": "10", "difficulty": "0", "mode": "live", "gender": "female", "education": "bachelor", "condition": 0, "native": "yes"}, "trialData": {"rt": 20012, "hit": "247", "trial": 2, "response_speaker": "human", "machine_groundtruth": "azure", "imageID": "static/dataset/coco_val_set/247.jpg", "page_name": "247_b_0.html/", "counterbalance": 0, "groundtruth": "machine", "human_groundtruth": "", "response_gender": "male"}}, "Trial_203": {"workerID": "A87D3K9YVKTQ7", "workerData": {"country": "United States", "age": "36-40", "engagement": "10", "difficulty": "0", "mode": "live", "gender": "female", "education": "bachelor", "condition": 0, "native": "yes"}, "trialData": {"rt": 21586, "hit": "352", "trial": 3, "response_speaker": "human", "machine_groundtruth": "detectron", "imageID": "static/dataset/coco_val_set/352.jpg", "page_name": "352_c_0.html/", "counterbalance": 0, "groundtruth": "machine", "human_groundtruth": "", "response_gender": "male"}}, "Trial_204": {"workerID": "A87D3K9YVKTQ7", "workerData": {"country": "United States", "age": "36-40", "engagement": "10", "difficulty": "0", "mode": "live", "gender": "female", "education": "bachelor", "condition": 0, "native": "yes"}, "trialData": {"rt": 43358, "hit": "230", "trial": 4, "response_speaker": "machine", "machine_groundtruth": "azure", "imageID": "static/dataset/coco_val_set/230.jpg", "page_name": "230_b_0.html/", "counterbalance": 0, "groundtruth": "machine", "human_groundtruth": "", "response_gender": "male"}}, "Trial_205": {"workerID": "A87D3K9YVKTQ7", "workerData": {"country": "United States", "age": "36-40", "engagement": "10", "difficulty": "0", "mode": "live", "gender": "female", "education": "bachelor", "condition": 0, "native": "yes"}, "trialData": {"rt": 9849, "hit": "1887", "trial": 5, "response_speaker": "machine", "machine_groundtruth": "rekognition", "imageID": "static/dataset/coco_val_set/1887.jpg", "page_name": "1887_e_0.html/", "counterbalance": 0, "groundtruth": "machine", "human_groundtruth": "", "response_gender": "male"}}, "Trial_206": {"workerID": "A87D3K9YVKTQ7", "workerData": {"country": "United States", "age": "36-40", "engagement": "10", "difficulty": "0", "mode": "live", "gender": "female", "education": "bachelor", "condition": 0, "native": "yes"}, "trialData": {"rt": 11873, "hit": "492", "trial": 6, "response_speaker": "machine", "machine_groundtruth": "", "imageID": "static/dataset/coco_val_set/492.jpg", "page_name": "492_a_0.html/", "counterbalance": 0, "groundtruth": "