{"AIexperts": {"Trial_1": {"workerID": "debugonBNf", "workerData": {"native": "no", "age": "21-25", "gender": "male", "education": "master", "country": "India", "mode": "debug", "condition": 0, "engagement": "5", "difficulty": "5"}, "trialData": {"rt": 41079, "hit": "94", "trial": 1, "response_speaker": "machine", "machine_groundtruth": "google", "imageID": "static/dataset/coco_val_set/94.jpg", "page_name": "94_d_0.html/", "counterbalance": 0, "groundtruth": "machine", "human_groundtruth": "", "response_gender": "male"}}, "Trial_2": {"workerID": "debugonBNf", "workerData": {"native": "no", "age": "21-25", "gender": "male", "education": "master", "country": "India", "mode": "debug", "condition": 0, "engagement": "5", "difficulty": "5"}, "trialData": {"rt": 19035, "hit": "834", "trial": 2, "response_speaker": "machine", "machine_groundtruth": "azure", "imageID": "static/dataset/coco_val_set/834.jpg", "page_name": "834_b_0.html/", "counterbalance": 0, "groundtruth": "machine", "human_groundtruth": "", "response_gender": "male"}}, "Trial_3": {"workerID": "debugonBNf", "workerData": {"native": "no", "age": "21-25", "gender": "male", "education": "master", "country": "India", "mode": "debug", "condition": 0, "engagement": "5", "difficulty": "5"}, "trialData": {"rt": 13311, "hit": "4212", "trial": 3, "response_speaker": "machine", "machine_groundtruth": "", "imageID": "static/dataset/coco_val_set/4212.jpg", "page_name": "4212_a_0.html/", "counterbalance": 0, "groundtruth": "human", "human_groundtruth": "human", "response_gender": "male"}}, "Trial_4": {"workerID": "debugonBNf", "workerData": {"native": "no", "age": "21-25", "gender": "male", "education": "master", "country": "India", "mode": "debug", "condition": 0, "engagement": "5", "difficulty": "5"}, "trialData": {"rt": 16098, "hit": "2169", "trial": 4, "response_speaker": "human", "machine_groundtruth": "", "imageID": "static/dataset/coco_val_set/2169.jpg", "page_name": "2169_a_0.html/", "counterbalance": 0, "groundtruth": "human", "human_groundtruth": "human", "response_gender": "male"}}, "Trial_5": {"workerID": "debugonBNf", "workerData": {"native": "no", "age": "21-25", "gender": "male", "education": "master", "country": "India", "mode": "debug", "condition": 0, "engagement": "5", "difficulty": "5"}, "trialData": {"rt": 16914, "hit": "650", "trial": 5, "response_speaker": "machine", "machine_groundtruth": "google", "imageID": "static/dataset/coco_val_set/650.jpg", "page_name": "650_d_0.html/", "counterbalance": 0, "groundtruth": "machine", "human_groundtruth": "", "response_gender": "male"}}, "Trial_7": {"workerID": "debugonBNf", "workerData": {"native": "no", "age": "21-25", "gender": "male", "education": "master", "country": "India", "mode": "debug", "condition": 0, "engagement": "5", "difficulty": "5"}, "trialData": {"rt": 15700, "hit": "350", "trial": 7, "response_speaker": "human", "machine_groundtruth": "", "imageID": "static/dataset/coco_val_set/350.jpg", "page_name": "350_a_0.html/", "counterbalance": 0, "groundtruth": "human", "human_groundtruth": "human", "response_gender": "male"}}, "Trial_8": {"workerID": "debugonBNf", "workerData": {"native": "no", "age": "21-25", "gender": "male", "education": "master", "country": "India", "mode": "debug", "condition": 0, "engagement": "5", "difficulty": "5"}, "trialData": {"rt": 14162, "hit": "168", "trial": 8, "response_speaker": "human", "machine_groundtruth": "", "imageID": "static/dataset/coco_val_set/168.jpg", "page_name": "168_a_0.html/", "counterbalance": 0, "groundtruth": "human", "human_groundtruth": "human", "response_gender": "male"}}, "Trial_9": {"workerID": "debugonBNf", "workerData": {"native": "no", "age": "21-25", "gender": "male", "education": "master", "country": "India", "mode": "debug", "condition": 0, "engagement": "5", "difficulty": "5"}, "trialData": {"rt": 12085, "hit": "4316", "trial": 9, "response_speaker": "machine", "machine_groundtruth": "", "imageID": "static/dataset/coco_val_set/4316.jpg", "page_name": "4316_a_0.html/", "counterbalance": 0, "groundtruth": "human", "human_groundtruth": "human", "response_gender": "male"}}, "Trial_10": {"workerID": "debugonBNf", "workerData": {"native": "no", "age": "21-25", "gender": "male", "education": "master", "country": "India", "mode": "debug", "condition": 0, "engagement": "5", "difficulty": "5"}, "trialData": {"rt": 19377, "hit": "728", "trial": 10, "response_speaker": "human", "machine_groundtruth": "", "imageID": "static/dataset/coco_val_set/728.jpg", "page_name": "728_a_0.html/", "counterbalance": 0, "groundtruth": "human", "human_groundtruth": "human", "response_gender": "female"}}, "Trial_11": {"workerID": "debugonBNf", "workerData": {"native": "no", "age": "21-25", "gender": "male", "education": "master", "country": "India", "mode": "debug", "condition": 0, "engagement": "5", "difficulty": "5"}, "trialData": {"rt": 14915, "hit": "575", "trial": 11, "response_speaker": "machine", "machine_groundtruth": "", "imageID": "static/dataset/coco_val_set/575.jpg", "page_name": "575_a_0.html/", "counterbalance": 0, "groundtruth": "human", "human_groundtruth": "human", "response_gender": "female"}}, "Trial_12": {"workerID": "debugonBNf", "workerData": {"native": "no", "age": "21-25", "gender": "male", "education": "master", "country": "India", "mode": "debug", "condition": 0, "engagement": "5", "difficulty": "5"}, "trialData": {"rt": 9513, "hit": "1960", "trial": 12, "response_speaker": "machine", "machine_groundtruth": "google", "imageID": "static/dataset/coco_val_set/1960.jpg", "page_name": "1960_d_0.html/", "counterbalance": 0, "groundtruth": "machine", "human_groundtruth": "", "response_gender": "male"}}, "Trial_13": {"workerID": "debugonBNf", "workerData": {"native": "no", "age": "21-25", "gender": "male", "education": "master", "country": "India", "mode": "debug", "condition": 0, "engagement": "5", "difficulty": "5"}, "trialData": {"rt": 13431, "hit": "224", "trial": 13, "response_speaker": "machine", "machine_groundtruth": "google", "imageID": "static/dataset/coco_val_set/224.jpg", "page_name": "224_d_0.html/", "counterbalance": 0, "groundtruth": "machine", "human_groundtruth": "", "response_gender": "male"}}, "Trial_15": {"workerID": "debugonBNf", "workerData": {"native": "no", "age": "21-25", "gender": "male", "education": "master", "country": "India", "mode": "debug", "condition": 0, "engagement": "5", "difficulty": "5"}, "trialData": {"rt": 11941, "hit": "3958", "trial": 15, "response_speaker": "human", "machine_groundtruth": "", "imageID": "static/dataset/coco_val_set/3958.jpg", "page_name": "3958_a_0.html/", "counterbalance": 0, "groundtruth": "human", "human_groundtruth": "human", "response_gender": "male"}}, "Trial_16": {"workerID": "debugonBNf", "workerData": {"native": "no", "age": "21-25", "gender": "male", "education": "master", "country": "India", "mode": "debug", "condition": 0, "engagement": "5", "difficulty": "5"}, "trialData": {"rt": 12228, "hit": "505", "trial": 16, "response_speaker": "machine", "machine_groundtruth": "rekognition", "imageID": "static/dataset/coco_val_set/505.jpg", "page_name": "505_e_0.html/", "counterbalance": 0, "groundtruth": "machine", "human_groundtruth": "", "response_gender": "male"}}, "Trial_17": {"workerID": "debugonBNf", "workerData": {"native": "no", "age": "21-25", "gender": "male", "education": "master", "country": "India", "mode": "debug", "condition": 0, "engagement": "5", "difficulty": "5"}, "trialData": {"rt": 17245, "hit": "423", "trial": 17, "response_speaker": "human", "machine_groundtruth": "", "imageID": "static/dataset/coco_val_set/423.jpg", "page_name": "423_a_0.html/", "counterbalance": 0, "groundtruth": "human", "human_groundtruth": "human", "response_gender": "male"}}, "Trial_18": {"workerID": "debugonBNf", "workerData": {"native": "no", "age": "21-25", "gender": "male", "education": "master", "country": "India", "mode": "debug", "condition": 0, "engagement": "5", "difficulty": "5"}, "trialData": {"rt": 8315, "hit": "937", "trial": 18, "response_speaker": "machine", "machine_groundtruth": "detectron", "imageID": "static/dataset/coco_val_set/937.jpg", "page_name": "937_c_0.html/", "counterbalance": 0, "groundtruth": "machine", "human_groundtruth": "", "response_gender": "male"}}, "Trial_19": {"workerID": "debugonBNf", "workerData": {"native": "no", "age": "21-25", "gender": "male", "education": "master", "country": "India", "mode": "debug", "condition": 0, "engagement": "5", "difficulty": "5"}, "trialData": {"rt": 10797, "hit": "322", "trial": 19, "response_speaker": "human", "machine_groundtruth": "", "imageID": "static/dataset/coco_val_set/322.jpg", "page_name": "322_a_0.html/", "counterbalance": 0, "groundtruth": "human", "human_groundtruth": "human", "response_gender": "female"}}, "Trial_20": {"workerID": "debugonBNf", "workerData": {"native": "no", "age": "21-25", "gender": "male", "education": "master", "country": "India", "mode": "debug", "condition": 0, "engagement": "5", "difficulty": "5"}, "trialData": {"rt": 10263, "hit": "409", "trial": 20, "response_speaker": "machine", "machine_groundtruth": "", "imageID": "static/dataset/coco_val_set/409.jpg", "page_name": "409_a_0.html/", "counterbalance": 0, "groundtruth": "human", "human_groundtruth": "human", "response_gender": "male"}}, "Trial_21": {"workerID": "debugonBNf", "workerData": {"native": "no", "age": "21-25", "gender": "male", "education": "master", "country": "India", "mode": "debug", "condition": 0, "engagement": "5", "difficulty": "5"}, "trialData": {"rt": 12447, "hit": "237", "trial": 21, "response_speaker": "machine", "machine_groundtruth": "google", "imageID": "static/dataset/coco_val_set/237.jpg", "page_name": "237_d_0.html/", "counterbalance": 0, "groundtruth": "machine", "human_groundtruth": "", "response_gender": "female"}}, "Trial_22": {"workerID": "debugonBNf", "workerData": {"native": "no", "age": "21-25", "gender": "male", "education": "master", "country": "India", "mode": "debug", "condition": 0, "engagement": "5", "difficulty": "5"}, "trialData": {"rt": 17129, "hit": "639", "trial": 22, "response_speaker": "machine", "machine_groundtruth": "", "imageID": "static/dataset/coco_val_set/639.jpg", "page_name": "639_a_0.html/", "counterbalance": 0, "groundtruth": "human", "human_groundtruth": "human", "response_gender": "female"}}, "Trial_23": {"workerID": "debugonBNf", "workerData": {"native": "no", "age": "21-25", "gender": "male", "education": "master", "country": "India", "mode": "debug", "condition": 0, "engagement": "5", "difficulty": "5"}, "trialData": {"rt": 15497, "hit": "811", "trial": 23, "response_speaker": "human", "machine_groundtruth": "", "imageID": "static/dataset/coco_val_set/811.jpg", "page_name": "811_a_0.html/", "counterbalance": 0, "groundtruth": "human", "human_groundtruth": "human", "response_gender": "male"}}, "Trial_24": {"workerID": "debugonBNf", "workerData": {"native": "no", "age": "21-25", "gender": "male", "education": "master", "country": "India", "mode": "debug", "condition": 0, "engagement": "5", "difficulty": "5"}, "trialData": {"rt": 16588, "hit": "780", "trial": 24, "response_speaker": "machine", "machine_groundtruth": "azure", "imageID": "static/dataset/coco_val_set/780.jpg", "page_name": "780_b_0.html/", "counterbalance": 0, "groundtruth": "machine", "human_groundtruth": "", "response_gender": "male"}}, "Trial_25": {"workerID": "debugonBNf", "workerData": {"native": "no", "age": "21-25", "gender": "male", "education": "master", "country": "India", "mode": "debug", "condition": 0, "engagement": "5", "difficulty": "5"}, "trialData": {"rt": 18649, "hit": "842", "trial": 25, "response_speaker": "machine", "machine_groundtruth": "detectron", "imageID": "static/dataset/coco_val_set/842.jpg", "page_name": "842_c_0.html/", "counterbalance": 0, "groundtruth": "machine", "human_groundtruth": "", "response_gender": "male"}}, "Trial_27": {"workerID": "debugonBNf", "workerData": {"native": "no", "age": "21-25", "gender": "male", "education": "master", "country": "India", "mode": "debug", "condition": 0, "engagement": "5", "difficulty": "5"}, "trialData": {"rt": 21197, "hit": "722", "trial": 27, "response_speaker": "human", "machine_groundtruth": "azure", "imageID": "static/dataset/coco_val_set/722.jpg", "page_name": "722_b_0.html/", "counterbalance": 0, "groundtruth": "machine", "human_groundtruth": "", "response_gender": "female"}}, "Trial_28": {"workerID": "debugonBNf", "workerData": {"native": "no", "age": "21-25", "gender": "male", "education": "master", "country": "India", "mode": "debug", "condition": 0, "engagement": "5", "difficulty": "5"}, "trialData": {"rt": 9811, "hit": "641", "trial": 28, "response_speaker": "human", "machine_groundtruth": "rekognition", "imageID": "static/dataset/coco_val_set/641.jpg", "page_name": "641_e_0.html/", "counterbalance": 0, "groundtruth": "machine", "human_groundtruth": "", "response_gender": "male"}}, "Trial_29": {"workerID": "debugonBNf", "workerData": {"native": "no", "age": "21-25", "gender": "male", "education": "master", "country": "India", "mode": "debug", "condition": 0, "engagement": "5", "difficulty": "5"}, "trialData": {"rt": 16114, "hit": "562", "trial": 29, "response_speaker": "human", "machine_groundtruth": "google", "imageID": "static/dataset/coco_val_set/562.jpg", "page_name": "562_d_0.html/", "counterbalance": 0, "groundtruth": "machine", "human_groundtruth": "", "response_gender": "male"}}, "Trial_30": {"workerID": "debugonBNf", "workerData": {"native": "no", "age": "21-25", "gender": "male", "education": "master", "country": "India", "mode": "debug", "condition": 0, "engagement": "5", "difficulty": "5"}, "trialData": {"rt": 13711, "hit": "154", "trial": 30, "response_speaker": "machine", "machine_groundtruth": "detectron", "imageID": "static/dataset/coco_val_set/154.jpg", "page_name": "154_c_0.html/", "counterbalance": 0, "groundtruth": "machine", "human_groundtruth": "", "response_gender": "male"}}, "Trial_31": {"workerID": "debugonBNf", "workerData": {"native": "no", "age": "21-25", "gender": "male", "education": "master", "country": "India", "mode": "debug", "condition": 0, "engagement": "5", "difficulty": "5"}, "trialData": {"rt": 9563, "hit": "2872", "trial": 31, "response_speaker": "machine", "machine_groundtruth": "", "imageID": "static/dataset/coco_val_set/2872.jpg", "page_name": "2872_a_0.html/", "counterbalance": 0, "groundtruth": "human", "human_groundtruth": "human", "response_gender": "male"}}, "Trial_32": {"workerID": "debugonBNf", "workerData": {"native": "no", "age": "21-25", "gender": "male", "education": "master", "country": "India", "mode": "debug", "condition": 0, "engagement": "5", "difficulty": "5"}, "trialData": {"rt": 8364, "hit": "752", "trial": 32, "response_speaker": "human", "machine_groundtruth": "", "imageID": "static/dataset/coco_val_set/752.jpg", "page_name": "752_a_0.html/", "counterbalance": 0, "groundtruth": "human", "human_groundtruth": "human", "response_gender": "male"}}, "Trial_33": {"workerID": "debugonBNf", "workerData": {"native": "no", "age": "21-25", "gender": "male", "education": "master", "country": "India", "mode": "debug", "condition": 0, "engagement": "5", "difficulty": "5"}, "trialData": {"rt": 10831, "hit": "689", "trial": 33, "response_speaker": "machine", "machine_groundtruth": "google", "imageID": "static/dataset/coco_val_set/689.jpg", "page_name": "689_d_0.html/", "counterbalance": 0, "groundtruth": "machine", "human_groundtruth": "", "response_gender": "male"}}, "Trial_34": {"workerID": "debugonBNf", "workerData": {"native": "no", "age": "21-25", "gender": "male", "education": "master", "country": "India", "mode": "debug", "condition": 0, "engagement": "5", "difficulty": "5"}, "trialData": {"rt": 13246, "hit": "119", "trial": 34, "response_speaker": "machine", "machine_groundtruth": "", "imageID": "static/dataset/coco_val_set/119.jpg", "page_name": "119_a_0.html/", "counterbalance": 0, "groundtruth": "human", "human_groundtruth": "human", "response_gender": "female"}}, "Trial_35": {"workerID": "debugonBNf", "workerData": {"native": "no", "age": "21-25", "gender": "male", "education": "master", "country": "India", "mode": "debug", "condition": 0, "engagement": "5", "difficulty": "5"}, "trialData": {"rt": 15631, "hit": "506", "trial": 35, "response_speaker": "human", "machine_groundtruth": "", "imageID": "static/dataset/coco_val_set/506.jpg", "page_name": "506_a_0.html/", "counterbalance": 0, "groundtruth": "human", "human_groundtruth": "human", "response_gender": "male"}}, "Trial_36": {"workerID": "debugonBNf", "workerData": {"native": "no", "age": "21-25", "gender": "male", "education": "master", "country": "India", "mode": "debug", "condition": 0, "engagement": "5", "difficulty": "5"}, "trialData": {"rt": 10211, "hit": "158", "trial": 36, "response_speaker": "human", "machine_groundtruth": "azure", "imageID": "static/dataset/coco_val_set/158.jpg", "page_name": "158_b_0.html/", "counterbalance": 0, "groundtruth": "machine", "human_groundtruth": "", "response_gender": "male"}}, "Trial_37": {"workerID": "debugonBNf", "workerData": {"native": "no", "age": "21-25", "gender": "male", "education": "master", "country": "India", "mode": "debug", "condition": 0, "engagement": "5", "difficulty": "5"}, "trialData": {"rt": 6099, "hit": "819", "trial": 37, "response_speaker": "human", "machine_groundtruth": "", "imageID": "static/dataset/coco_val_set/819.jpg", "page_name": "819_a_0.html/", "counterbalance": 0, "groundtruth": "human", "human_groundtruth": "human", "response_gender": "male"}}, "Trial_38": {"workerID": "debugonBNf", "workerData": {"native": "no", "age": "21-25", "gender": "male", "education": "master", "country": "India", "mode": "debug", "condition": 0, "engagement": "5", "difficulty": "5"}, "trialData": {"rt": 17544, "hit": "1621", "trial": 38, "response_speaker": "machine", "machine_groundtruth": "", "imageID": "static/dataset/coco_val_set/1621.jpg", "page_name": "1621_a_0.html/", "counterbalance": 0, "groundtruth": "human", "human_groundtruth": "human", "response_gender": "male"}}, "Trial_39": {"workerID": "debugonBNf", "workerData": {"native": "no", "age": "21-25", "gender": "male", "education": "master", "country": "India", "mode": "debug", "condition": 0, "engagement": "5", "difficulty": "5"}, "trialData": {"rt": 9596, "hit": "655", "trial": 39, "response_speaker": "human", "machine_groundtruth": "", "imageID": "static/dataset/coco_val_set/655.jpg", "page_name": "655_a_0.html/", "counterbalance": 0, "groundtruth": "human", "human_groundtruth": "human", "response_gender": "male"}}, "Trial_40": {"workerID": "debugonBNf", "workerData": {"native": "no", "age": "21-25", "gender": "male", "education": "master", "country": "India", "mode": "debug", "condition": 0, "engagement": "5", "difficulty": "5"}, "trialData": {"rt": 13498, "hit": "951", "trial": 40, "response_speaker": "human", "machine_groundtruth": "azure", "imageID": "static/dataset/coco_val_set/951.jpg", "page_name": "951_b_0.html/", "counterbalance": 0, "groundtruth": "machine", "human_groundtruth": "", "response_gender": "female"}}, "Trial_41": {"workerID": "debugHYCsX", "workerData": {"native": "no", "age": "21-25", "gender": "male", "education": "master", "country": "Italy", "mode": "debug", "condition": 0, "engagement": "5", "difficulty": "5"}, "trialData": {"rt": 7705, "hit": "755", "trial": 1, "response_speaker": "machine", "machine_groundtruth": "detectron", "imageID": "static/dataset/coco_val_set/755.jpg", "page_name": "755_c_0.html/", "counterbalance": 0, "groundtruth": "machine", "human_groundtruth": "", "response_gender": "female"}}, "Trial_42": {"workerID": "debugHYCsX", "workerData": {"native": "no", "age": "21-25", "gender": "male", "education": "master", "country": "Italy", "mode": "debug", "condition": 0, "engagement": "5", "difficulty": "5"}, "trialData": {"rt": 9623, "hit": "728", "trial": 2, "response_speaker": "machine", "machine_groundtruth": "azure", "imageID": "static/dataset/coco_val_set/728.jpg", "page_name": "728_b_0.html/", "counterbalance": 0, "groundtruth": "machine", "human_groundtruth": "", "response_gender": "female"}}, "Trial_44": {"workerID": "debugHYCsX", "workerData": {"native": "no", "age": "21-25", "gender": "male", "education": "master", "country": "Italy", "mode": "debug", "condition": 0, "engagement": "5", "difficulty": "5"}, "trialData": {"rt": 7084, "hit": "11", "trial": 4, "response_speaker": "human", "machine_groundtruth": "", "imageID": "static/dataset/coco_val_set/11.jpg", "page_name": "11_a_0.html/", "counterbalance": 0, "groundtruth": "human", "human_groundtruth": "human", "response_gender": "male"}}, "Trial_45": {"workerID": "debugHYCsX", "workerData": {"native": "no", "age": "21-25", "gender": "male", "education": "master", "country": "Italy", "mode": "debug", "condition": 0, "engagement": "5", "difficulty": "5"}, "trialData": {"rt": 5791, "hit": "839", "trial": 5, "response_speaker": "machine", "machine_groundtruth": "detectron", "imageID": "static/dataset/coco_val_set/839.jpg", "page_name": "839_c_0.html/", "counterbalance": 0, "groundtruth": "machine", "human_groundtruth": "", "response_gender": "male"}}, "Trial_46": {"workerID": "debugHYCsX", "workerData": {"native": "no", "age": "21-25", "gender": "male", "education": "master", "country": "Italy", "mode": "debug", "condition": 0, "engagement": "5", "difficulty": "5"}, "trialData": {"rt": 10605, "hit": "670", "trial": 6, "response_speaker": "machine", "machine_groundtruth": "rekognition", "imageID": "static/dataset/coco_val_set/670.jpg", "page_name": "670_e_0.html/", "counterbalance": 0, "groundtruth": "machine", "human_groundtruth": "", "response_gender": "male"}}, "Trial_47": {"workerID": "debugHYCsX", "workerData": {"native": "no", "age": "21-25", "gender": "male", "education": "master", "country": "Italy", "mode": "debug", "condition": 0, "engagement": "5", "difficulty": "5"}, "trialData": {"rt": 5503, "hit": "4798", "trial": 7, "response_speaker": "machine", "machine_groundtruth": "google", "imageID": "static/dataset/coco_val_set/4798.jpg", "page_name": "4798_d_0.html/", "counterbalance": 0, "groundtruth": "machine", "human_groundtruth": "", "response_gender": "female"}}, "Trial_48": {"workerID": "debugHYCsX", "workerData": {"native": "no", "age": "21-25", "gender": "male", "education": "master", "country": "Italy", "mode": "debug", "condition": 0, "engagement": "5", "difficulty": "5"}, "trialData": {"rt": 6329, "hit": "943", "trial": 8, "response_speaker": "machine", "machine_groundtruth": "", "imageID": "static/dataset/coco_val_set/943.jpg", "page_name": "943_a_0.html/", "counterbalance": 0, "groundtruth": "human", "human_groundtruth": "human", "response_gender": "female"}}, "Trial_49": {"workerID": "debugHYCsX", "workerData": {"native": "no", "age": "21-25", "gender": "male", "education": "master", "country": "Italy", "mode": "debug", "condition": 0, "engagement": "5", "difficulty": "5"}, "trialData": {"rt": 4837, "hit": "721", "trial": 9, "response_speaker": "human", "machine_groundtruth": "", "imageID": "static/dataset/coco_val_set/721.jpg", "page_name": "721_a_0.html/", "counterbalance": 0, "groundtruth": "human", "human_groundtruth": "human", "response_gender": "female"}}, "Trial_50": {"workerID": "debugHYCsX", "workerData": {"native": "no", "age": "21-25", "gender": "male", "education": "master", "country": "Italy", "mode": "debug", "condition": 0, "engagement": "5", "difficulty": "5"}, "trialData": {"rt": 9171, "hit": "606", "trial": 10, "response_speaker": "human", "machine_groundtruth": "rekognition", "imageID": "static/dataset/coco_val_set/606.jpg", "page_name": "606_e_0.html/", "counterbalance": 0, "groundtruth": "machine", "human_groundtruth": "", "response_gender": "male"}}, "Trial_51": {"workerID": "debugHYCsX", "workerData": {"native": "no", "age": "21-25", "gender": "male", "education": "master", "country": "Italy", "mode": "debug", "condition": 0, "engagement": "5", "difficulty": "5"}, "trialData": {"rt": 9246, "hit": "335", "trial": 11, "response_speaker": "machine", "machine_groundtruth": "google", "imageID": "static/dataset/coco_val_set/335.jpg", "page_name": "335_d_0.html/", "counterbalance": 0, "groundtruth": "machine", "human_groundtruth": "", "response_gender": "female"}}, "Trial_52": {"workerID": "debugHYCsX", "workerData": {"native": "no", "age": "21-25", "gender": "male", "education": "master", "country": "Italy", "mode": "debug", "condition": 0, "engagement": "5", "difficulty": "5"}, "trialData": {"rt": 45943, "hit": "745", "trial": 12, "response_speaker": "machine", "machine_groundtruth": "azure", "imageID": "static/dataset/coco_val_set/745.jpg", "page_name": "745_b_0.html/", "counterbalance": 0, "groundtruth": "machine", "human_groundtruth": "", "response_gender": "female"}}, "Trial_54": {"workerID": "debugHYCsX", "workerData": {"native": "no", "age": "21-25", "gender": "male", "education": "master", "country": "Italy", "mode": "debug", "condition": 0, "engagement": "5", "difficulty": "5"}, "trialData": {"rt": 5592, "hit": "775", "trial": 14, "response_speaker": "human", "machine_groundtruth": "", "imageID": "static/dataset/coco_val_set/775.jpg", "page_name": "775_a_0.html/", "counterbalance": 0, "groundtruth": "human", "human_groundtruth": "human", "response_gender": "female"}}, "Trial_56": {"workerID": "debugHYCsX", "workerData": {"native": "no", "age": "21-25", "gender": "male", "education": "master", "country": "Italy", "mode": "debug", "condition": 0, "engagement": "5", "difficulty": "5"}, "trialData": {"rt": 5743, "hit": "4896", "trial": 16, "response_speaker": "machine", "machine_groundtruth": "", "imageID": "static/dataset/coco_val_set/4896.jpg", "page_name": "4896_a_0.html/", "counterbalance": 0, "groundtruth": "human", "human_groundtruth": "human", "response_gender": "female"}}, "Trial_58": {"workerID": "debugHYCsX", "workerData": {"native": "no", "age": "21-25", "gender": "male", "education": "master", "country": "Italy", "mode": "debug", "condition": 0, "engagement": "5", "difficulty": "5"}, "trialData": {"rt": 6789, "hit": "444", "trial": 18, "response_speaker": "machine", "machine_groundtruth": "google", "imageID": "static/dataset/coco_val_set/444.jpg", "page_name": "444_d_0.html/", "counterbalance": 0, "groundtruth": "machine", "human_groundtruth": "", "response_gender": "female"}}, "Trial_60": {"workerID": "debugHYCsX", "workerData": {"native": "no", "age": "21-25", "gender": "male", "education": "master", "country": "Italy", "mode": "debug", "condition": 0, "engagement": "5", "difficulty": "5"}, "trialData": {"rt": 5368, "hit": "294", "trial": 20, "response_speaker": "human", "machine_groundtruth": "", "imageID": "static/dataset/coco_val_set/294.jpg", "page_name": "294_a_0.html/", "counterbalance": 0, "groundtruth": "human", "human_groundtruth": "human", "response_gender": "male"}}, "Trial_61": {"workerID": "debugHYCsX", "workerData": {"native": "no", "age": "21-25", "gender": "male", "education": "master", "country": "Italy", "mode": "debug", "condition": 0, "engagement": "5", "difficulty": "5"}, "trialData": {"rt": 8277, "hit": "4787", "trial": 21, "response_speaker": "machine", "machine_groundtruth": "", "imageID": "static/dataset/coco_val_set/4787.jpg", "page_name": "4787_a_0.html/", "counterbalance": 0, "groundtruth": "human", "human_groundtruth": "human", "response_gender": "male"}}, "Trial_63": {"workerID": "debugHYCsX", "workerData": {"native": "no", "age": "21-25", "gender": "male", "education": "master", "country": "Italy", "mode": "debug", "condition": 0, "engagement": "5", "difficulty": "5"}, "trialData": {"rt": 27465, "hit": "387", "trial": 23, "response_speaker": "human", "machine_groundtruth": "detectron", "imageID": "static/dataset/coco_val_set/387.jpg", "page_name": "387_c_0.html/", "counterbalance": 0, "groundtruth": "machine", "human_groundtruth": "", "response_gender": "male"}}, "Trial_64": {"workerID": "debugHYCsX", "workerData": {"native": "no", "age": "21-25", "gender": "male", "education": "master", "country": "Italy", "mode": "debug", "condition": 0, "engagement": "5", "difficulty": "5"}, "trialData": {"rt": 4482, "hit": "796", "trial": 24, "response_speaker": "machine", "machine_groundtruth": "", "imageID": "static/dataset/coco_val_set/796.jpg", "page_name": "796_a_0.html/", "counterbalance": 0, "groundtruth": "human", "human_groundtruth": "human", "response_gender": "male"}}, "Trial_65": {"workerID": "debugHYCsX", "workerData": {"native": "no", "age": "21-25", "gender": "male", "education": "master", "country": "Italy", "mode": "debug", "condition": 0, "engagement": "5", "difficulty": "5"}, "trialData": {"rt": 3074, "hit": "217", "trial": 25, "response_speaker": "machine", "machine_groundtruth": "detectron", "imageID": "static/dataset/coco_val_set/217.jpg", "page_name": "217_c_0.html/", "counterbalance": 0, "groundtruth": "machine", "human_groundtruth": "", "response_gender": "male"}}, "Trial_66": {"workerID": "debugHYCsX", "workerData": {"native": "no", "age": "21-25", "gender": "male", "education": "master", "country": "Italy", "mode": "debug", "condition": 0, "engagement": "5", "difficulty": "5"}, "trialData": {"rt": 6180, "hit": "2138", "trial": 26, "response_speaker": "human", "machine_groundtruth": "detectron", "imageID": "static/dataset/coco_val_set/2138.jpg", "page_name": "2138_c_0.html/", "counterbalance": 0, "groundtruth": "machine", "human_groundtruth": "", "response_gender": "female"}}, "Trial_67": {"workerID": "debugHYCsX", "workerData": {"native": "no", "age": "21-25", "gender": "male", "education": "master", "country": "Italy", "mode": "debug", "condition": 0, "engagement": "5", "difficulty": "5"}, "trialData": {"rt": 8953, "hit": "693", "trial": 27, "response_speaker": "human", "machine_groundtruth": "", "imageID": "static/dataset/coco_val_set/693.jpg", "page_name": "693_a_0.html/", "counterbalance": 0, "groundtruth": "human", "human_groundtruth": "human", "response_gender": "female"}}, "Trial_68": {"workerID": "debugHYCsX", "workerData": {"native": "no", "age": "21-25", "gender": "male", "education": "master", "country": "Italy", "mode": "debug", "condition": 0, "engagement": "5", "difficulty": "5"}, "trialData": {"rt": 14814, "hit": "963", "trial": 28, "response_speaker": "machine", "machine_groundtruth": "", "imageID": "static/dataset/coco_val_set/963.jpg", "page_name": "963_a_0.html/", "counterbalance": 0, "groundtruth": "human", "human_groundtruth": "human", "response_gender": "female"}}, "Trial_69": {"workerID": "debugHYCsX", "workerData": {"native": "no", "age": "21-25", "gender": "male", "education": "master", "country": "Italy", "mode": "debug", "condition": 0, "engagement": "5", "difficulty": "5"}, "trialData": {"rt": 10812, "hit": "42", "trial": 29, "response_speaker": "machine", "machine_groundtruth": "azure", "imageID": "static/dataset/coco_val_set/42.jpg", "page_name": "42_b_0.html/", "counterbalance": 0, "groundtruth": "machine", "human_groundtruth": "", "response_gender": "female"}}, "Trial_70": {"workerID": "debugHYCsX", "workerData": {"native": "no", "age": "21-25", "gender": "male", "education": "master", "country": "Italy", "mode": "debug", "condition": 0, "engagement": "5", "difficulty": "5"}, "trialData": {"rt": 10109, "hit": "565", "trial": 30, "response_speaker": "human", "machine_groundtruth": "", "imageID": "static/dataset/coco_val_set/565.jpg", "page_name": "565_a_0.html/", "counterbalance": 0, "groundtruth": "human", "human_groundtruth": "human", "response_gender": "female"}}, "Trial_71": {"workerID": "debugHYCsX", "workerData": {"native": "no", "age": "21-25", "gender": "male", "education": "master", "country": "Italy", "mode": "debug", "condition": 0, "engagement": "5", "difficulty": "5"}, "trialData": {"rt": 8076, "hit": "306", "trial": 31, "response_speaker": "machine", "machine_groundtruth": "azure", "imageID": "static/dataset/coco_val_set/306.jpg", "page_name": "306_b_0.html/", "counterbalance": 0, "groundtruth": "machine", "human_groundtruth": "", "response_gender": "female"}}, "Trial_72": {"workerID": "debugHYCsX", "workerData": {"native": "no", "age": "21-25", "gender": "male", "education": "master", "country": "Italy", "mode": "debug", "condition": 0, "engagement": "5", "difficulty": "5"}, "trialData": {"rt": 4851, "hit": "4127", "trial": 32, "response_speaker": "machine", "machine_groundtruth": "", "imageID": "static/dataset/coco_val_set/4127.jpg", "page_name": "4127_a_0.html/", "counterbalance": 0, "groundtruth": "human", "human_groundtruth": "human", "response_gender": "female"}}, "Trial_74": {"workerID": "debugHYCsX", "workerData": {"native": "no", "age": "21-25", "gender": "male", "education": "master", "country": "Italy", "mode": "debug", "condition": 0, "engagement": "5", "difficulty": "5"}, "trialData": {"rt": 12959, "hit": "952", "trial": 34, "response_speaker": "human", "machine_groundtruth": "", "imageID": "static/dataset/coco_val_set/952.jpg", "page_name": "952_a_0.html/", "counterbalance": 0, "groundtruth": "human", "human_groundtruth": "human", "response_gender": "male"}}, "Trial_75": {"workerID": "debugHYCsX", "workerData": {"native": "no", "age": "21-25", "gender": "male", "education": "master", "country": "Italy", "mode": "debug", "condition": 0, "engagement": "5", "difficulty": "5"}, "trialData": {"rt": 5548, "hit": "787", "trial": 35, "response_speaker": "machine", "machine_groundtruth": "google", "imageID": "static/dataset/coco_val_set/787.jpg", "page_name": "787_d_0.html/", "counterbalance": 0, "groundtruth": "machine", "human_groundtruth": "", "response_gender": "male"}}, "Trial_76": {"workerID": "debugHYCsX", "workerData": {"native": "no", "age": "21-25", "gender": "male", "education": "master", "country": "Italy", "mode": "debug", "condition": 0, "engagement": "5", "difficulty": "5"}, "trialData": {"rt": 4926, "hit": "479", "trial": 36, "response_speaker": "machine", "machine_groundtruth": "rekognition", "imageID": "static/dataset/coco_val_set/479.jpg", "page_name": "479_e_0.html/", "counterbalance": 0, "groundtruth": "machine", "human_groundtruth": "", "response_gender": "female"}}, "Trial_77": {"workerID": "debugHYCsX", "workerData": {"native": "no", "age": "21-25", "gender": "male", "education": "master", "country": "Italy", "mode": "debug", "condition": 0, "engagement": "5", "difficulty": "5"}, "trialData": {"rt": 6851, "hit": "460", "trial": 37, "response_speaker": "human", "machine_groundtruth": "azure", "imageID": "static/dataset/coco_val_set/460.jpg", "page_name": "460_b_0.html/", "counterbalance": 0, "groundtruth": "machine", "human_groundtruth": "", "response_gender": "female"}}, "Trial_78": {"workerID": "debugHYCsX", "workerData": {"native": "no", "age": "21-25", "gender": "male", "education": "master", "country": "Italy", "mode": "debug", "condition": 0, "engagement": "5", "difficulty": "5"}, "trialData": {"rt": 5118, "hit": "4053", "trial": 38, "response_speaker": "machine", "machine_groundtruth": "detectron", "imageID": "static/dataset/coco_val_set/4053.jpg", "page_name": "4053_c_0.html/", "counterbalance": 0, "groundtruth": "machine", "human_groundtruth": "", "response_gender": "female"}}, "Trial_79": {"workerID": "debugHYCsX", "workerData": {"native": "no", "age": "21-25", "gender": "male", "education": "master", "country": "Italy", "mode": "debug", "condition": 0, "engagement": "5", "difficulty": "5"}, "trialData": {"rt": 5117, "hit": "528", "trial": 39, "response_speaker": "human", "machine_groundtruth": "", "imageID": "static/dataset/coco_val_set/528.jpg", "page_name": "528_a_0.html/", "counterbalance": 0, "groundtruth": "human", "human_groundtruth": "human", "response_gender": "male"}}, "Trial_80": {"workerID": "debugHYCsX", "workerData": {"native": "no", "age": "21-25", "gender": "male", "education": "master", "country": "Italy", "mode": "debug", "condition": 0, "engagement": "5", "difficulty": "5"}, "trialData": {"rt": 4138, "hit": "282", "trial": 40, "response_speaker": "human", "machine_groundtruth": "", "imageID": "static/dataset/coco_val_set/282.jpg", "page_name": "282_a_0.html/", "counterbalance": 0, "groundtruth": "human", "human_groundtruth": "human", "response_gender": "female"}}, "Trial_81": {"workerID": "debug8vJLR", "workerData": {"native": "no", "age": "31-35", "gender": "female", "education": "bachelor", "country": "Peru", "mode": "debug", "condition": 0, "engagement": "3", "difficulty": "7"}, "trialData": {"rt": 34141, "hit": "48", "trial": 1, "response_speaker": "machine", "machine_groundtruth": "", "imageID": "static/dataset/coco_val_set/48.jpg", "page_name": "48_a_0.html/", "counterbalance": 0, "groundtruth": "human", "human_groundtruth": "human", "response_gender": "male"}}, "Trial_82": {"workerID": "debug8vJLR", "workerData": {"native": "no", "age": "31-35", "gender": "female", "education": "bachelor", "country": "Peru", "mode": "debug", "condition": 0, "engagement": "3", "difficulty": "7"}, "trialData": {"rt": 90391, "hit": "998", "trial": 2, "response_speaker": "machine", "machine_groundtruth": "", "imageID": "static/dataset/coco_val_set/998.jpg", "page_name": "998_a_0.html/", "counterbalance": 0, "groundtruth": "human", "human_groundtruth": "human", "response_gender": "female"}}, "Trial_83": {"workerID": "debug8vJLR", "workerData": {"native": "no", "age": "31-35", "gender": "female", "education": "bachelor", "country": "Peru", "mode": "debug", "condition": 0, "engagement": "3", "difficulty": "7"}, "trialData": {"rt": 15285, "hit": "696", "trial": 3, "response_speaker": "human", "machine_groundtruth": "", "imageID": "static/dataset/coco_val_set/696.jpg", "page_name": "696_a_0.html/", "counterbalance": 0, "groundtruth": "human", "human_groundtruth": "human", "response_gender": "male"}}, "Trial_84": {"workerID": "debug8vJLR", "workerData": {"native": "no", "age": "31-35", "gender": "female", "education": "bachelor", "country": "Peru", "mode": "debug", "condition": 0, "engagement": "3", "difficulty": "7"}, "trialData": {"rt": 56167, "hit": "89", "trial": 4, "response_speaker": "machine", "machine_groundtruth": "detectron", "imageID": "static/dataset/coco_val_set/89.jpg", "page_name": "89_c_0.html/", "counterbalance": 0, "groundtruth": "machine", "human_groundtruth": "", "response_gender": "female"}}, "Trial_86": {"workerID": "debug8vJLR", "workerData": {"native": "no", "age": "31-35", "gender": "female", "education": "bachelor", "country": "Peru", "mode": "debug", "condition": 0, "engagement": "3", "difficulty": "7"}, "trialData": {"rt": 14600, "hit": "408", "trial": 6, "response_speaker": "machine", "machine_groundtruth": "azure", "imageID": "static/dataset/coco_val_set/408.jpg", "page_name": "408_b_0.html/", "counterbalance": 0, "groundtruth": "machine", "human_groundtruth": "", "response_gender": "female"}}, "Trial_87": {"workerID": "debug8vJLR", "workerData": {"native": "no", "age": "31-35", "gender": "female", "education": "bachelor", "country": "Peru", "mode": "debug", "condition": 0, "engagement": "3", "difficulty": "7"}, "trialData": {"rt": 61223, "hit": "479", "trial": 7, "response_speaker": "machine", "machine_groundtruth": "google", "imageID": "static/dataset/coco_val_set/479.jpg", "page_name": "479_d_0.html/", "counterbalance": 0, "groundtruth": "machine", "human_groundtruth": "", "response_gender": "female"}}, "Trial_88": {"workerID": "debug8vJLR", "workerData": {"native": "no", "age": "31-35", "gender": "female", "education": "bachelor", "country": "Peru", "mode": "debug", "condition": 0, "engagement": "3", "difficulty": "7"}, "trialData": {"rt": 17670, "hit": "962", "trial": 8, "response_speaker": "human", "machine_groundtruth": "", "imageID": "static/dataset/coco_val_set/962.jpg", "page_name": "962_a_0.html/", "counterbalance": 0, "groundtruth": "human", "human_groundtruth": "human", "response_gender": "female"}}, "Trial_89": {"workerID": "debug8vJLR", "workerData": {"native": "no", "age": "31-35", "gender": "female", "education": "bachelor", "country": "Peru", "mode": "debug", "condition": 0, "engagement": "3", "difficulty": "7"}, "trialData": {"rt": 19156, "hit": "793", "trial": 9, "response_speaker": "human", "machine_groundtruth": "", "imageID": "static/dataset/coco_val_set/793.jpg", "page_name": "793_a_0.html/", "counterbalance": 0, "groundtruth": "human", "human_groundtruth": "human", "response_gender": "male"}}, "Trial_90": {"workerID": "debug8vJLR", "workerData": {"native": "no", "age": "31-35", "gender": "female", "education": "bachelor", "country": "Peru", "mode": "debug", "condition": 0, "engagement": "3", "difficulty": "7"}, "trialData": {"rt": 12176, "hit": "776", "trial": 10, "response_speaker": "machine", "machine_groundtruth": "", "imageID": "static/dataset/coco_val_set/776.jpg", "page_name": "776_a_0.html/", "counterbalance": 0, "groundtruth": "human", "human_groundtruth": "human", "response_gender": "male"}}, "Trial_91": {"workerID": "debug8vJLR", "workerData": {"native": "no", "age": "31-35", "gender": "female", "education": "bachelor", "country": "Peru", "mode": "debug", "condition": 0, "engagement": "3", "difficulty": "7"}, "trialData": {"rt": 9593, "hit": "808", "trial": 11, "response_speaker": "machine", "machine_groundtruth": "", "imageID": "static/dataset/coco_val_set/808.jpg", "page_name": "808_a_0.html/", "counterbalance": 0, "groundtruth": "human", "human_groundtruth": "human", "response_gender": "female"}}, "Trial_92": {"workerID": "debug8vJLR", "workerData": {"native": "no", "age": "31-35", "gender": "female", "education": "bachelor", "country": "Peru", "mode": "debug", "condition": 0, "engagement": "3", "difficulty": "7"}, "trialData": {"rt": 38631, "hit": "601", "trial": 12, "response_speaker": "human", "machine_groundtruth": "rekognition", "imageID": "static/dataset/coco_val_set/601.jpg", "page_name": "601_e_0.html/", "counterbalance": 0, "groundtruth": "machine", "human_groundtruth": "", "response_gender": "female"}}, "Trial_93": {"workerID": "debug8vJLR", "workerData": {"native": "no", "age": "31-35", "gender": "female", "education": "bachelor", "country": "Peru", "mode": "debug", "condition": 0, "engagement": "3", "difficulty": "7"}, "trialData": {"rt": 13112, "hit": "1000", "trial": 13, "response_speaker": "human", "machine_groundtruth": "", "imageID": "static/dataset/coco_val_set/1000.jpg", "page_name": "1000_a_0.html/", "counterbalance": 0, "groundtruth": "human", "human_groundtruth": "human", "response_gender": "male"}}, "Trial_94": {"workerID": "debug8vJLR", "workerData": {"native": "no", "age": "31-35", "gender": "female", "education": "bachelor", "country": "Peru", "mode": "debug", "condition": 0, "engagement": "3", "difficulty": "7"}, "trialData": {"rt": 19129, "hit": "158", "trial": 14, "response_speaker": "machine", "machine_groundtruth": "", "imageID": "static/dataset/coco_val_set/158.jpg", "page_name": "158_a_0.html/", "counterbalance": 0, "groundtruth": "human", "human_groundtruth": "human", "response_gender": "female"}}, "Trial_96": {"workerID": "debug8vJLR", "workerData": {"native": "no", "age": "31-35", "gender": "female", "education": "bachelor", "country": "Peru", "mode": "debug", "condition": 0, "engagement": "3", "difficulty": "7"}, "trialData": {"rt": 11951, "hit": "678", "trial": 16, "response_speaker": "machine", "machine_groundtruth": "google", "imageID": "static/dataset/coco_val_set/678.jpg", "page_name": "678_d_0.html/", "counterbalance": 0, "groundtruth": "machine", "human_groundtruth": "", "response_gender": "female"}}, "Trial_97": {"workerID": "debug8vJLR", "workerData": {"native": "no", "age": "31-35", "gender": "female", "education": "bachelor", "country": "Peru", "mode": "debug", "condition": 0, "engagement": "3", "difficulty": "7"}, "trialData": {"rt": 131004, "hit": "815", "trial": 17, "response_speaker": "human", "machine_groundtruth": "", "imageID": "static/dataset/coco_val_set/815.jpg", "page_name": "815_a_0.html/", "counterbalance": 0, "groundtruth": "human", "human_groundtruth": "human", "response_gender": "male"}}, "Trial_98": {"workerID": "debug8vJLR", "workerData": {"native": "no", "age": "31-35", "gender": "female", "education": "bachelor", "country": "Peru", "mode": "debug", "condition": 0, "engagement": "3", "difficulty": "7"}, "trialData": {"rt": 65341, "hit": "4704", "trial": 18, "response_speaker": "machine", "machine_groundtruth": "azure", "imageID": "static/dataset/coco_val_set/4704.jpg", "page_name": "4704_b_0.html/", "counterbalance": 0, "groundtruth": "machine", "human_groundtruth": "", "response_gender": "male"}}, "Trial_99": {"workerID": "debug8vJLR", "workerData": {"native": "no", "age": "31-35", "gender": "female", "education": "bachelor", "country": "Peru", "mode": "debug", "condition": 0, "engagement": "3", "difficulty": "7"}, "trialData": {"rt": 18365, "hit": "340", "trial": 19, "response_speaker": "machine", "machine_groundtruth": "", "imageID": "static/dataset/coco_val_set/340.jpg", "page_name": "340_a_0.html/", "counterbalance": 0, "groundtruth": "human", "human_groundtruth": "human", "response_gender": "female"}}, "Trial_100": {"workerID": "debug8vJLR", "workerData": {"native": "no", "age": "31-35", "gender": "female", "education": "bachelor", "country": "Peru", "mode": "debug", "condition": 0, "engagement": "3", "difficulty": "7"}, "trialData": {"rt": 14239, "hit": "65", "trial": 20, "response_speaker": "machine", "machine_groundtruth": "", "imageID": "static/dataset/coco_val_set/65.jpg", "page_name": "65_a_0.html/", "counterbalance": 0, "groundtruth": "human", "human_groundtruth": "human", "response_gender": "male"}}, "Trial_101": {"workerID": "debug8vJLR", "workerData": {"native": "no", "age": "31-35", "gender": "female", "education": "bachelor", "country": "Peru", "mode": "debug", "condition": 0, "engagement": "3", "difficulty": "7"}, "trialData": {"rt": 17532, "hit": "819", "trial": 21, "response_speaker": "machine", "machine_groundtruth": "", "imageID": "static/dataset/coco_val_set/819.jpg", "page_name": "819_a_0.html/", "counterbalance": 0, "groundtruth": "human", "human_groundtruth": "human", "response_gender": "female"}}, "Trial_103": {"workerID": "debug8vJLR", "workerData": {"native": "no", "age": "31-35", "gender": "female", "education": "bachelor", "country": "Peru", "mode": "debug", "condition": 0, "engagement": "3", "difficulty": "7"}, "trialData": {"rt": 8923, "hit": "237", "trial": 23, "response_speaker": "machine", "machine_groundtruth": "google", "imageID": "static/dataset/coco_val_set/237.jpg", "page_name": "237_d_0.html/", "counterbalance": 0, "groundtruth": "machine", "human_groundtruth": "", "response_gender": "female"}}, "Trial_104": {"workerID": "debug8vJLR", "workerData": {"native": "no", "age": "31-35", "gender": "female", "education": "bachelor", "country": "Peru", "mode": "debug", "condition": 0, "engagement": "3", "difficulty": "7"}, "trialData": {"rt": 23310, "hit": "240", "trial": 24, "response_speaker": "human", "machine_groundtruth": "", "imageID": "static/dataset/coco_val_set/240.jpg", "page_name": "240_a_0.html/", "counterbalance": 0, "groundtruth": "human", "human_groundtruth": "human", "response_gender": "female"}}, "Trial_105": {"workerID": "debug8vJLR", "workerData": {"native": "no", "age": "31-35", "gender": "female", "education": "bachelor", "country": "Peru", "mode": "debug", "condition": 0, "engagement": "3", "difficulty": "7"}, "trialData": {"rt": 12541, "hit": "656", "trial": 25, "response_speaker": "machine", "machine_groundtruth": "detectron", "imageID": "static/dataset/coco_val_set/656.jpg", "page_name": "656_c_0.html/", "counterbalance": 0, "groundtruth": "machine", "human_groundtruth": "", "response_gender": "male"}}, "Trial_106": {"workerID": "debug8vJLR", "workerData": {"native": "no", "age": "31-35", "gender": "female", "education": "bachelor", "country": "Peru", "mode": "debug", "condition": 0, "engagement": "3", "difficulty": "7"}, "trialData": {"rt": 10116, "hit": "721", "trial": 26, "response_speaker": "machine", "machine_groundtruth": "google", "imageID": "static/dataset/coco_val_set/721.jpg", "page_name": "721_d_0.html/", "counterbalance": 0, "groundtruth": "machine", "human_groundtruth": "", "response_gender": "female"}}, "Trial_107": {"workerID": "debug8vJLR", "workerData": {"native": "no", "age": "31-35", "gender": "female", "education": "bachelor", "country": "Peru", "mode": "debug", "condition": 0, "engagement": "3", "difficulty": "7"}, "trialData": {"rt": 69096, "hit": "491", "trial": 27, "response_speaker": "machine", "machine_groundtruth": "detectron", "imageID": "static/dataset/coco_val_set/491.jpg", "page_name": "491_c_0.html/", "counterbalance": 0, "groundtruth": "machine", "human_groundtruth": "", "response_gender": "male"}}, "Trial_108": {"workerID": "debug8vJLR", "workerData": {"native": "no", "age": "31-35", "gender": "female", "education": "bachelor", "country": "Peru", "mode": "debug", "condition": 0, "engagement": "3", "difficulty": "7"}, "trialData": {"rt": 33774, "hit": "769", "trial": 28, "response_speaker": "machine", "machine_groundtruth": "azure", "imageID": "static/dataset/coco_val_set/769.jpg", "page_name": "769_b_0.html/", "counterbalance": 0, "groundtruth": "machine", "human_groundtruth": "", "response_gender": "female"}}, "Trial_109": {"workerID": "debug8vJLR", "workerData": {"native": "no", "age": "31-35", "gender": "female", "education": "bachelor", "country": "Peru", "mode": "debug", "condition": 0, "engagement": "3", "difficulty": "7"}, "trialData": {"rt": 15360, "hit": "15", "trial": 29, "response_speaker": "machine", "machine_groundtruth": "rekognition", "imageID": "static/dataset/coco_val_set/15.jpg", "page_name": "15_e_0.html/", "counterbalance": 0, "groundtruth": "machine", "human_groundtruth": "", "response_gender": "male"}}, "Trial_110": {"workerID": "debug8vJLR", "workerData": {"native": "no", "age": "31-35", "gender": "female", "education": "bachelor", "country": "Peru", "mode": "debug", "condition": 0, "engagement": "3", "difficulty": "7"}, "trialData": {"rt": 15266, "hit": "1080", "trial": 30, "response_speaker": "machine", "machine_groundtruth": "azure", "imageID": "static/dataset/coco_val_set/1080.jpg", "page_name": "1080_b_0.html/", "counterbalance": 0, "groundtruth": "machine", "human_groundtruth": "", "response_gender": "female"}}, "Trial_111": {"workerID": "debug8vJLR", "workerData": {"native": "no", "age": "31-35", "gender": "female", "education": "bachelor", "country": "Peru", "mode": "debug", "condition": 0, "engagement": "3", "difficulty": "7"}, "trialData": {"rt": 14246, "hit": "66", "trial": 31, "response_speaker": "machine", "machine_groundtruth": "google", "imageID": "static/dataset/coco_val_set/66.jpg", "page_name": "66_d_0.html/", "counterbalance": 0, "groundtruth": "machine", "human_groundtruth": "", "response_gender": "female"}}, "Trial_113": {"workerID": "debug8vJLR", "workerData": {"native": "no", "age": "31-35", "gender": "female", "education": "bachelor", "country": "Peru", "mode": "debug", "condition": 0, "engagement": "3", "difficulty": "7"}, "trialData": {"rt": 8854, "hit": "131", "trial": 33, "response_speaker": "machine", "machine_groundtruth": "", "imageID": "static/dataset/coco_val_set/131.jpg", "page_name": "131_a_0.html/", "counterbalance": 0, "groundtruth": "human", "human_groundtruth": "human", "response_gender": "male"}}, "Trial_114": {"workerID": "debug8vJLR", "workerData": {"native": "no", "age": "31-35", "gender": "female", "education": "bachelor", "country": "Peru", "mode": "debug", "condition": 0, "engagement": "3", "difficulty": "7"}, "trialData": {"rt": 18140, "hit": "752", "trial": 34, "response_speaker": "machine", "machine_groundtruth": "google", "imageID": "static/dataset/coco_val_set/752.jpg", "page_name": "752_d_0.html/", "counterbalance": 0, "groundtruth": "machine", "human_groundtruth": "", "response_gender": "female"}}, "Trial_115": {"workerID": "debug8vJLR", "workerData": {"native": "no", "age": "31-35", "gender": "female", "education": "bachelor", "country": "Peru", "mode": "debug", "condition": 0, "engagement": "3", "difficulty": "7"}, "trialData": {"rt": 11445, "hit": "57", "trial": 35, "response_speaker": "machine", "machine_groundtruth": "rekognition", "imageID": "static/dataset/coco_val_set/57.jpg", "page_name": "57_e_0.html/", "counterbalance": 0, "groundtruth": "machine", "human_groundtruth": "", "response_gender": "male"}}, "Trial_116": {"workerID": "debug8vJLR", "workerData": {"native": "no", "age": "31-35", "gender": "female", "education": "bachelor", "country": "Peru", "mode": "debug", "condition": 0, "engagement": "3", "difficulty": "7"}, "trialData": {"rt": 10400, "hit": "890", "trial": 36, "response_speaker": "machine", "machine_groundtruth": "detectron", "imageID": "static/dataset/coco_val_set/890.jpg", "page_name": "890_c_0.html/", "counterbalance": 0, "groundtruth": "machine", "human_groundtruth": "", "response_gender": "female"}}, "Trial_117": {"workerID": "debug8vJLR", "workerData": {"native": "no", "age": "31-35", "gender": "female", "education": "bachelor", "country": "Peru", "mode": "debug", "condition": 0, "engagement": "3", "difficulty": "7"}, "trialData": {"rt": 16875, "hit": "587", "trial": 37, "response_speaker": "machine", "machine_groundtruth": "rekognition", "imageID": "static/dataset/coco_val_set/587.jpg", "page_name": "587_e_0.html/", "counterbalance": 0, "groundtruth": "machine", "human_groundtruth": "", "response_gender": "male"}}, "Trial_119": {"workerID": "debug8vJLR", "workerData": {"native": "no", "age": "31-35", "gender": "female", "education": "bachelor", "country": "Peru", "mode": "debug", "condition": 0, "engagement": "3", "difficulty": "7"}, "trialData": {"rt": 24939, "hit": "2387", "trial": 39, "response_speaker": "machine", "machine_groundtruth": "google", "imageID": "static/dataset/coco_val_set/2387.jpg", "page_name": "2387_d_0.html/", "counterbalance": 0, "groundtruth": "machine", "human_groundtruth": "", "response_gender": "male"}}, "Trial_120": {"workerID": "debug8vJLR", "workerData": {"native": "no", "age": "31-35", "gender": "female", "education": "bachelor", "country": "Peru", "mode": "debug", "condition": 0, "engagement": "3", "difficulty": "7"}, "trialData": {"rt": 11645, "hit": "174", "trial": 40, "response_speaker": "machine", "machine_groundtruth": "", "imageID": "static/dataset/coco_val_set/174.jpg", "page_name": "174_a_0.html/", "counterbalance": 0, "groundtruth": "human", "human_groundtruth": "human", "response_gender": "female"}}, "Trial_121": {"workerID": "debugqSAjR", "workerData": {"native": "no", "age": "26-30", "gender": "male", "education": "master", "country": "France", "mode": "debug", "condition": 0, "engagement": "4", "difficulty": "3"}, "trialData": {"rt": 15951, "hit": "830", "trial": 1, "response_speaker": "machine", "machine_groundtruth": "azure", "imageID": "static/dataset/coco_val_set/830.jpg", "page_name": "830_b_0.html/", "counterbalance": 0, "groundtruth": "machine", "human_groundtruth": "", "response_gender": "female"}}, "Trial_122": {"workerID": "debugqSAjR", "workerData": {"native": "no", "age": "26-30", "gender": "male", "education": "master", "country": "France", "mode": "debug", "condition": 0, "engagement": "4", "difficulty": "3"}, "trialData": {"rt": 11455, "hit": "134", "trial": 2, "response_speaker": "machine", "machine_groundtruth": "rekognition", "imageID": "static/dataset/coco_val_set/134.jpg", "page_name": "134_e_0.html/", "counterbalance": 0, "groundtruth": "machine", "human_groundtruth": "", "response_gender": "female"}}, "Trial_123": {"workerID": "debugqSAjR", "workerData": {"native": "no", "age": "26-30", "gender": "male", "education": "master", "country": "France", "mode": "debug", "condition": 0, "engagement": "4", "difficulty": "3"}, "trialData": {"rt": 13769, "hit": "664", "trial": 3, "response_speaker": "human", "machine_groundtruth": "", "imageID": "static/dataset/coco_val_set/664.jpg", "page_name": "664_a_0.html/", "counterbalance": 0, "groundtruth": "human", "human_groundtruth": "human", "response_gender": "male"}}, "Trial_124": {"workerID": "debugqSAjR", "workerData": {"native": "no", "age": "26-30", "gender": "male", "education": "master", "country": "France", "mode": "debug", "condition": 0, "engagement": "4", "difficulty": "3"}, "trialData": {"rt": 9711, "hit": "4316", "trial": 4, "response_speaker": "machine", "machine_groundtruth": "", "imageID": "static/dataset/coco_val_set/4316.jpg", "page_name": "4316_a_0.html/", "counterbalance": 0, "groundtruth": "human", "human_groundtruth": "human", "response_gender": "male"}}, "Trial_125": {"workerID": "debugqSAjR", "workerData": {"native": "no", "age": "26-30", "gender": "male", "education": "master", "country": "France", "mode": "debug", "condition": 0, "engagement": "4", "difficulty": "3"}, "trialData": {"rt": 10718, "hit": "720", "trial": 5, "response_speaker": "machine", "machine_groundtruth": "detectron", "imageID": "static/dataset/coco_val_set/720.jpg", "page_name": "720_c_0.html/", "counterbalance": 0, "groundtruth": "machine", "human_groundtruth": "", "response_gender": "male"}}, "Trial_126": {"workerID": "debugqSAjR", "workerData": {"native": "no", "age": "26-30", "gender": "male", "education": "master", "country": "France", "mode": "debug", "condition": 0, "engagement": "4", "difficulty": "3"}, "trialData": {"rt": 7524, "hit": "54", "trial": 6, "response_speaker": "machine", "machine_groundtruth": "", "imageID": "static/dataset/coco_val_set/54.jpg", "page_name": "54_a_0.html/", "counterbalance": 0, "groundtruth": "human", "human_groundtruth": "human", "response_gender": "male"}}, "Trial_127": {"workerID": "debugqSAjR", "workerData": {"native": "no", "age": "26-30", "gender": "male", "education": "master", "country": "France", "mode": "debug", "condition": 0, "engagement": "4", "difficulty": "3"}, "trialData": {"rt": 7496, "hit": "1712", "trial": 7, "response_speaker": "machine", "machine_groundtruth": "", "imageID": "static/dataset/coco_val_set/1712.jpg", "page_name": "1712_a_0.html/", "counterbalance": 0, "groundtruth": "human", "human_groundtruth": "human", "response_gender": "male"}}, "Trial_128": {"workerID": "debugqSAjR", "workerData": {"native": "no", "age": "26-30", "gender": "male", "education": "master", "country": "France", "mode": "debug", "condition": 0, "engagement": "4", "difficulty": "3"}, "trialData": {"rt": 11484, "hit": "656", "trial": 8, "response_speaker": "human", "machine_groundtruth": "", "imageID": "static/dataset/coco_val_set/656.jpg", "page_name": "656_a_0.html/", "counterbalance": 0, "groundtruth": "human", "human_groundtruth": "human", "response_gender": "male"}}, "Trial_129": {"workerID": "debugqSAjR", "workerData": {"native": "no", "age": "26-30", "gender": "male", "education": "master", "country": "France", "mode": "debug", "condition": 0, "engagement": "4", "difficulty": "3"}, "trialData": {"rt": 10807, "hit": "338", "trial": 9, "response_speaker": "machine", "machine_groundtruth": "", "imageID": "static/dataset/coco_val_set/338.jpg", "page_name": "338_a_0.html/", "counterbalance": 0, "groundtruth": "human", "human_groundtruth": "human", "response_gender": "male"}}, "Trial_130": {"workerID": "debugqSAjR", "workerData": {"native": "no", "age": "26-30", "gender": "male", "education": "master", "country": "France", "mode": "debug", "condition": 0, "engagement": "4", "difficulty": "3"}, "trialData": {"rt": 10813, "hit": "160", "trial": 10, "response_speaker": "machine", "machine_groundtruth": "", "imageID": "static/dataset/coco_val_set/160.jpg", "page_name": "160_a_0.html/", "counterbalance": 0, "groundtruth": "human", "human_groundtruth": "human", "response_gender": "male"}}, "Trial_131": {"workerID": "debugqSAjR", "workerData": {"native": "no", "age": "26-30", "gender": "male", "education": "master", "country": "France", "mode": "debug", "condition": 0, "engagement": "4", "difficulty": "3"}, "trialData": {"rt": 12202, "hit": "3272", "trial": 11, "response_speaker": "machine", "machine_groundtruth": "azure", "imageID": "static/dataset/coco_val_set/3272.jpg", "page_name": "3272_b_0.html/", "counterbalance": 0, "groundtruth": "machine", "human_groundtruth": "", "response_gender": "male"}}, "Trial_132": {"workerID": "debugqSAjR", "workerData": {"native": "no", "age": "26-30", "gender": "male", "education": "master", "country": "France", "mode": "debug", "condition": 0, "engagement": "4", "difficulty": "3"}, "trialData": {"rt": 13877, "hit": "822", "trial": 12, "response_speaker": "machine", "machine_groundtruth": "", "imageID": "static/dataset/coco_val_set/822.jpg", "page_name": "822_a_0.html/", "counterbalance": 0, "groundtruth": "human", "human_groundtruth": "human", "response_gender": "male"}}, "Trial_133": {"workerID": "debugqSAjR", "workerData": {"native": "no", "age": "26-30", "gender": "male", "education": "master", "country": "France", "mode": "debug", "condition": 0, "engagement": "4", "difficulty": "3"}, "trialData": {"rt": 18944, "hit": "365", "trial": 13, "response_speaker": "human", "machine_groundtruth": "", "imageID": "static/dataset/coco_val_set/365.jpg", "page_name": "365_a_0.html/", "counterbalance": 0, "groundtruth": "human", "human_groundtruth": "human", "response_gender": "male"}}, "Trial_134": {"workerID": "debugqSAjR", "workerData": {"native": "no", "age": "26-30", "gender": "male", "education": "master", "country": "France", "mode": "debug", "condition": 0, "engagement": "4", "difficulty": "3"}, "trialData": {"rt": 16536, "hit": "1080", "trial": 14, "response_speaker": "machine", "machine_groundtruth": "", "imageID": "static/dataset/coco_val_set/1080.jpg", "page_name": "1080_a_0.html/", "counterbalance": 0, "groundtruth": "human", "human_groundtruth": "human", "response_gender": "male"}}, "Trial_135": {"workerID": "debugqSAjR", "workerData": {"native": "no", "age": "26-30", "gender": "male", "education": "master", "country": "France", "mode": "debug", "condition": 0, "engagement": "4", "difficulty": "3"}, "trialData": {"rt": 9452, "hit": "383", "trial": 15, "response_speaker": "human", "machine_groundtruth": "", "imageID": "static/dataset/coco_val_set/383.jpg", "page_name": "383_a_0.html/", "counterbalance": 0, "groundtruth": "human", "human_groundtruth": "human", "response_gender": "male"}}, "Trial_136": {"workerID": "debugqSAjR", "workerData": {"native": "no", "age": "26-30", "gender": "male", "education": "master", "country": "France", "mode": "debug", "condition": 0, "engagement": "4", "difficulty": "3"}, "trialData": {"rt": 13460, "hit": "728", "trial": 16, "response_speaker": "human", "machine_groundtruth": "", "imageID": "static/dataset/coco_val_set/728.jpg", "page_name": "728_a_0.html/", "counterbalance": 0, "groundtruth": "human", "human_groundtruth": "human", "response_gender": "female"}}, "Trial_137": {"workerID": "debugqSAjR", "workerData": {"native": "no", "age": "26-30", "gender": "male", "education": "master", "country": "France", "mode": "debug", "condition": 0, "engagement": "4", "difficulty": "3"}, "trialData": {"rt": 14352, "hit": "87", "trial": 17, "response_speaker": "machine", "machine_groundtruth": "google", "imageID": "static/dataset/coco_val_set/87.jpg", "page_name": "87_d_0.html/", "counterbalance": 0, "groundtruth": "machine", "human_groundtruth": "", "response_gender": "male"}}, "Trial_138": {"workerID": "debugqSAjR", "workerData": {"native": "no", "age": "26-30", "gender": "male", "education": "master", "country": "France", "mode": "debug", "condition": 0, "engagement": "4", "difficulty": "3"}, "trialData": {"rt": 8754, "hit": "826", "trial": 18, "response_speaker": "machine", "machine_groundtruth": "", "imageID": "static/dataset/coco_val_set/826.jpg", "page_name": "826_a_0.html/", "counterbalance": 0, "groundtruth": "human", "human_groundtruth": "human", "response_gender": "male"}}, "Trial_139": {"workerID": "debugqSAjR", "workerData": {"native": "no", "age": "26-30", "gender": "male", "education": "master", "country": "France", "mode": "debug", "condition": 0, "engagement": "4", "difficulty": "3"}, "trialData": {"rt": 14398, "hit": "227", "trial": 19, "response_speaker": "human", "machine_groundtruth": "", "imageID": "static/dataset/coco_val_set/227.jpg", "page_name": "227_a_0.html/", "counterbalance": 0, "groundtruth": "human", "human_groundtruth": "human", "response_gender": "male"}}, "Trial_140": {"workerID": "debugqSAjR", "workerData": {"native": "no", "age": "26-30", "gender": "male", "education": "master", "country": "France", "mode": "debug", "condition": 0, "engagement": "4", "difficulty": "3"}, "trialData": {"rt": 6891, "hit": "532", "trial": 20, "response_speaker": "machine", "machine_groundtruth": "", "imageID": "static/dataset/coco_val_set/532.jpg", "page_name": "532_a_0.html/", "counterbalance": 0, "groundtruth": "human", "human_groundtruth": "human", "response_gender": "male"}}, "Trial_141": {"workerID": "debugqSAjR", "workerData": {"native": "no", "age": "26-30", "gender": "male", "education": "master", "country": "France", "mode": "debug", "condition": 0, "engagement": "4", "difficulty": "3"}, "trialData": {"rt": 19562, "hit": "754", "trial": 21, "response_speaker": "human", "machine_groundtruth": "", "imageID": "static/dataset/coco_val_set/754.jpg", "page_name": "754_a_0.html/", "counterbalance": 0, "groundtruth": "human", "human_groundtruth": "human", "response_gender": "male"}}, "Trial_142": {"workerID": "debugqSAjR", "workerData": {"native": "no", "age": "26-30", "gender": "male", "education": "master", "country": "France", "mode": "debug", "condition": 0, "engagement": "4", "difficulty": "3"}, "trialData": {"rt": 18814, "hit": "541", "trial": 22, "response_speaker": "machine", "machine_groundtruth": "google", "imageID": "static/dataset/coco_val_set/541.jpg", "page_name": "541_d_0.html/", "counterbalance": 0, "groundtruth": "machine", "human_groundtruth": "", "response_gender": "male"}}, "Trial_143": {"workerID": "debugqSAjR", "workerData": {"native": "no", "age": "26-30", "gender": "male", "education": "master", "country": "France", "mode": "debug", "condition": 0, "engagement": "4", "difficulty": "3"}, "trialData": {"rt": 12547, "hit": "864", "trial": 23, "response_speaker": "human", "machine_groundtruth": "detectron", "imageID": "static/dataset/coco_val_set/864.jpg", "page_name": "864_c_0.html/", "counterbalance": 0, "groundtruth": "machine", "human_groundtruth": "", "response_gender": "male"}}, "Trial_144": {"workerID": "debugqSAjR", "workerData": {"native": "no", "age": "26-30", "gender": "male", "education": "master", "country": "France", "mode": "debug", "condition": 0, "engagement": "4", "difficulty": "3"}, "trialData": {"rt": 19728, "hit": "857", "trial": 24, "response_speaker": "machine", "machine_groundtruth": "detectron", "imageID": "static/dataset/coco_val_set/857.jpg", "page_name": "857_c_0.html/", "counterbalance": 0, "groundtruth": "machine", "human_groundtruth": "", "response_gender": "male"}}, "Trial_145": {"workerID": "debugqSAjR", "workerData": {"native": "no", "age": "26-30", "gender": "male", "education": "master", "country": "France", "mode": "debug", "condition": 0, "engagement": "4", "difficulty": "3"}, "trialData": {"rt": 15656, "hit": "97", "trial": 25, "response_speaker": "machine", "machine_groundtruth": "", "imageID": "static/dataset/coco_val_set/97.jpg", "page_name": "97_a_0.html/", "counterbalance": 0, "groundtruth": "human", "human_groundtruth": "human", "response_gender": "male"}}, "Trial_146": {"workerID": "debugqSAjR", "workerData": {"native": "no", "age": "26-30", "gender": "male", "education": "master", "country": "France", "mode": "debug", "condition": 0, "engagement": "4", "difficulty": "3"}, "trialData": {"rt": 12871, "hit": "701", "trial": 26, "response_speaker": "machine", "machine_groundtruth": "azure", "imageID": "static/dataset/coco_val_set/701.jpg", "page_name": "701_b_0.html/", "counterbalance": 0, "groundtruth": "machine", "human_groundtruth": "", "response_gender": "male"}}, "Trial_147": {"workerID": "debugqSAjR", "workerData": {"native": "no", "age": "26-30", "gender": "male", "education": "master", "country": "France", "mode": "debug", "condition": 0, "engagement": "4", "difficulty": "3"}, "trialData": {"rt": 11892, "hit": "204", "trial": 27, "response_speaker": "human", "machine_groundtruth": "azure", "imageID": "static/dataset/coco_val_set/204.jpg", "page_name": "204_b_0.html/", "counterbalance": 0, "groundtruth": "machine", "human_groundtruth": "", "response_gender": "male"}}, "Trial_148": {"workerID": "debugqSAjR", "workerData": {"native": "no", "age": "26-30", "gender": "male", "education": "master", "country": "France", "mode": "debug", "condition": 0, "engagement": "4", "difficulty": "3"}, "trialData": {"rt": 13303, "hit": "489", "trial": 28, "response_speaker": "machine", "machine_groundtruth": "azure", "imageID": "static/dataset/coco_val_set/489.jpg", "page_name": "489_b_0.html/", "counterbalance": 0, "groundtruth": "machine", "human_groundtruth": "", "response_gender": "male"}}, "Trial_149": {"workerID": "debugqSAjR", "workerData": {"native": "no", "age": "26-30", "gender": "male", "education": "master", "country": "France", "mode": "debug", "condition": 0, "engagement": "4", "difficulty": "3"}, "trialData": {"rt": 8884, "hit": "560", "trial": 29, "response_speaker": "human", "machine_groundtruth": "detectron", "imageID": "static/dataset/coco_val_set/560.jpg", "page_name": "560_c_0.html/", "counterbalance": 0, "groundtruth": "machine", "human_groundtruth": "", "response_gender": "male"}}, "Trial_150": {"workerID": "debugqSAjR", "workerData": {"native": "no", "age": "26-30", "gender": "male", "education": "master", "country": "France", "mode": "debug", "condition": 0, "engagement": "4", "difficulty": "3"}, "trialData": {"rt": 9381, "hit": "296", "trial": 30, "response_speaker": "human", "machine_groundtruth": "azure", "imageID": "static/dataset/coco_val_set/296.jpg", "page_name": "296_b_0.html/", "counterbalance": 0, "groundtruth": "machine", "human_groundtruth": "", "response_gender": "male"}}, "Trial_151": {"workerID": "debugqSAjR", "workerData": {"native": "no", "age": "26-30", "gender": "male", "education": "master", "country": "France", "mode": "debug", "condition": 0, "engagement": "4", "difficulty": "3"}, "trialData": {"rt": 12395, "hit": "1140", "trial": 31, "response_speaker": "human", "machine_groundtruth": "azure", "imageID": "static/dataset/coco_val_set/1140.jpg", "page_name": "1140_b_0.html/", "counterbalance": 0, "groundtruth": "machine", "human_groundtruth": "", "response_gender": "male"}}, "Trial_152": {"workerID": "debugqSAjR", "workerData": {"native": "no", "age": "26-30", "gender": "male", "education": "master", "country": "France", "mode": "debug", "condition": 0, "engagement": "4", "difficulty": "3"}, "trialData": {"rt": 9955, "hit": "742", "trial": 32, "response_speaker": "human", "machine_groundtruth": "azure", "imageID": "static/dataset/coco_val_set/742.jpg", "page_name": "742_b_0.html/", "counterbalance": 0, "groundtruth": "machine", "human_groundtruth": "", "response_gender": "male"}}, "Trial_154": {"workerID": "debugqSAjR", "workerData": {"native": "no", "age": "26-30", "gender": "male", "education": "master", "country": "France", "mode": "debug", "condition": 0, "engagement": "4", "difficulty": "3"}, "trialData": {"rt": 10418, "hit": "328", "trial": 34, "response_speaker": "machine", "machine_groundtruth": "", "imageID": "static/dataset/coco_val_set/328.jpg", "page_name": "328_a_0.html/", "counterbalance": 0, "groundtruth": "human", "human_groundtruth": "human", "response_gender": "male"}}, "Trial_155": {"workerID": "debugqSAjR", "workerData": {"native": "no", "age": "26-30", "gender": "male", "education": "master", "country": "France", "mode": "debug", "condition": 0, "engagement": "4", "difficulty": "3"}, "trialData": {"rt": 19497, "hit": "632", "trial": 35, "response_speaker": "human", "machine_groundtruth": "", "imageID": "static/dataset/coco_val_set/632.jpg", "page_name": "632_a_0.html/", "counterbalance": 0, "groundtruth": "human", "human_groundtruth": "human", "response_gender": "male"}}, "Trial_156": {"workerID": "debugqSAjR", "workerData": {"native": "no", "age": "26-30", "gender": "male", "education": "master", "country": "France", "mode": "debug", "condition": 0, "engagement": "4", "difficulty": "3"}, "trialData": {"rt": 12531, "hit": "678", "trial": 36, "response_speaker": "machine", "machine_groundtruth": "google", "imageID": "static/dataset/coco_val_set/678.jpg", "page_name": "678_d_0.html/", "counterbalance": 0, "groundtruth": "machine", "human_groundtruth": "", "response_gender": "male"}}, "Trial_157": {"workerID": "debugqSAjR", "workerData": {"native": "no", "age": "26-30", "gender": "male", "education": "master", "country": "France", "mode": "debug", "condition": 0, "engagement": "4", "difficulty": "3"}, "trialData": {"rt": 12382, "hit": "922", "trial": 37, "response_speaker": "human", "machine_groundtruth": "", "imageID": "static/dataset/coco_val_set/922.jpg", "page_name": "922_a_0.html/", "counterbalance": 0, "groundtruth": "human", "human_groundtruth": "human", "response_gender": "male"}}, "Trial_158": {"workerID": "debugqSAjR", "workerData": {"native": "no", "age": "26-30", "gender": "male", "education": "master", "country": "France", "mode": "debug", "condition": 0, "engagement": "4", "difficulty": "3"}, "trialData": {"rt": 14492, "hit": "923", "trial": 38, "response_speaker": "machine", "machine_groundtruth": "google", "imageID": "static/dataset/coco_val_set/923.jpg", "page_name": "923_d_0.html/", "counterbalance": 0, "groundtruth": "machine", "human_groundtruth": "", "response_gender": "male"}}, "Trial_159": {"workerID": "debugqSAjR", "workerData": {"native": "no", "age": "26-30", "gender": "male", "education": "master", "country": "France", "mode": "debug", "condition": 0, "engagement": "4", "difficulty": "3"}, "trialData": {"rt": 6790, "hit": "648", "trial": 39, "response_speaker": "machine", "machine_groundtruth": "detectron", "imageID": "static/dataset/coco_val_set/648.jpg", "page_name": "648_c_0.html/", "counterbalance": 0, "groundtruth": "machine", "human_groundtruth": "", "response_gender": "male"}}, "Trial_160": {"workerID": "debugqSAjR", "workerData": {"native": "no", "age": "26-30", "gender": "male", "education": "master", "country": "France", "mode": "debug", "condition": 0, "engagement": "4", "difficulty": "3"}, "trialData": {"rt": 15548, "hit": "79", "trial": 40, "response_speaker": "machine", "machine_groundtruth": "detectron", "imageID": "static/dataset/coco_val_set/79.jpg", "page_name": "79_c_0.html/", "counterbalance": 0, "groundtruth": "machine", "human_groundtruth": "", "response_gender": "male"}}, "Trial_161": {"workerID": "debug83ltO", "workerData": {"native": "yes", "age": "21-25", "gender": "female", "education": "high school", "country": "United States", "mode": "debug", "condition": 0, "engagement": "6", "difficulty": "4"}, "trialData": {"rt": 12057, "hit": "745", "trial": 1, "response_speaker": "human", "machine_groundtruth": "", "imageID": "static/dataset/coco_val_set/745.jpg", "page_name": "745_a_0.html/", "counterbalance": 0, "groundtruth": "human", "human_groundtruth": "human", "response_gender": "male"}}, "Trial_162": {"workerID": "debug83ltO", "workerData": {"native": "yes", "age": "21-25", "gender": "female", "education": "high school", "country": "United States", "mode": "debug", "condition": 0, "engagement": "6", "difficulty": "4"}, "trialData": {"rt": 7066, "hit": "66", "trial": 2, "response_speaker": "machine", "machine_groundtruth": "", "imageID": "static/dataset/coco_val_set/66.jpg", "page_name": "66_a_0.html/", "counterbalance": 0, "groundtruth": "human", "human_groundtruth": "human", "response_gender": "male"}}, "Trial_163": {"workerID": "debug83ltO", "workerData": {"native": "yes", "age": "21-25", "gender": "female", "education": "high school", "country": "United States", "mode": "debug", "condition": 0, "engagement": "6", "difficulty": "4"}, "trialData": {"rt": 10799, "hit": "191", "trial": 3, "response_speaker": "human", "machine_groundtruth": "", "imageID": "static/dataset/coco_val_set/191.jpg", "page_name": "191_a_0.html/", "counterbalance": 0, "groundtruth": "human", "human_groundtruth": "human", "response_gender": "male"}}, "Trial_164": {"workerID": "debug83ltO", "workerData": {"native": "yes", "age": "21-25", "gender": "female", "education": "high school", "country": "United States", "mode": "debug", "condition": 0, "engagement": "6", "difficulty": "4"}, "trialData": {"rt": 13648, "hit": "340", "trial": 4, "response_speaker": "machine", "machine_groundtruth": "", "imageID": "static/dataset/coco_val_set/340.jpg", "page_name": "340_a_0.html/", "counterbalance": 0, "groundtruth": "human", "human_groundtruth": "human", "response_gender": "male"}}, "Trial_165": {"workerID": "debug83ltO", "workerData": {"native": "yes", "age": "21-25", "gender": "female", "education": "high school", "country": "United States", "mode": "debug", "condition": 0, "engagement": "6", "difficulty": "4"}, "trialData": {"rt": 10733, "hit": "259", "trial": 5, "response_speaker": "machine", "machine_groundtruth": "", "imageID": "static/dataset/coco_val_set/259.jpg", "page_name": "259_a_0.html/", "counterbalance": 0, "groundtruth": "human", "human_groundtruth": "human", "response_gender": "male"}}, "Trial_166": {"workerID": "debug83ltO", "workerData": {"native": "yes", "age": "21-25", "gender": "female", "education": "high school", "country": "United States", "mode": "debug", "condition": 0, "engagement": "6", "difficulty": "4"}, "trialData": {"rt": 9747, "hit": "162", "trial": 6, "response_speaker": "human", "machine_groundtruth": "detectron", "imageID": "static/dataset/coco_val_set/162.jpg", "page_name": "162_c_0.html/", "counterbalance": 0, "groundtruth": "machine", "human_groundtruth": "", "response_gender": "female"}}, "Trial_167": {"workerID": "debug83ltO", "workerData": {"native": "yes", "age": "21-25", "gender": "female", "education": "high school", "country": "United States", "mode": "debug", "condition": 0, "engagement": "6", "difficulty": "4"}, "trialData": {"rt": 8400, "hit": "55", "trial": 7, "response_speaker": "machine", "machine_groundtruth": "", "imageID": "static/dataset/coco_val_set/55.jpg", "page_name": "55_a_0.html/", "counterbalance": 0, "groundtruth": "human", "human_groundtruth": "human", "response_gender": "male"}}, "Trial_168": {"workerID": "debug83ltO", "workerData": {"native": "yes", "age": "21-25", "gender": "female", "education": "high school", "country": "United States", "mode": "debug", "condition": 0, "engagement": "6", "difficulty": "4"}, "trialData": {"rt": 18081, "hit": "474", "trial": 8, "response_speaker": "machine", "machine_groundtruth": "", "imageID": "static/dataset/coco_val_set/474.jpg", "page_name": "474_a_0.html/", "counterbalance": 0, "groundtruth": "human", "human_groundtruth": "human", "response_gender": "male"}}, "Trial_169": {"workerID": "debug83ltO", "workerData": {"native": "yes", "age": "21-25", "gender": "female", "education": "high school", "country": "United States", "mode": "debug", "condition": 0, "engagement": "6", "difficulty": "4"}, "trialData": {"rt": 5351, "hit": "641", "trial": 9, "response_speaker": "machine", "machine_groundtruth": "", "imageID": "static/dataset/coco_val_set/641.jpg", "page_name": "641_a_0.html/", "counterbalance": 0, "groundtruth": "human", "human_groundtruth": "human", "response_gender": "male"}}, "Trial_170": {"workerID": "debug83ltO", "workerData": {"native": "yes", "age": "21-25", "gender": "female", "education": "high school", "country": "United States", "mode": "debug", "condition": 0, "engagement": "6", "difficulty": "4"}, "trialData": {"rt": 8797, "hit": "12", "trial": 10, "response_speaker": "machine", "machine_groundtruth": "rekognition", "imageID": "static/dataset/coco_val_set/12.jpg", "page_name": "12_e_0.html/", "counterbalance": 0, "groundtruth": "machine", "human_groundtruth": "", "response_gender": "male"}}, "Trial_171": {"workerID": "debug83ltO", "workerData": {"native": "yes", "age": "21-25", "gender": "female", "education": "high school", "country": "United States", "mode": "debug", "condition": 0, "engagement": "6", "difficulty": "4"}, "trialData": {"rt": 8251, "hit": "392", "trial": 11, "response_speaker": "machine", "machine_groundtruth": "azure", "imageID": "static/dataset/coco_val_set/392.jpg", "page_name": "392_b_0.html/", "counterbalance": 0, "groundtruth": "machine", "human_groundtruth": "", "response_gender": "male"}}, "Trial_172": {"workerID": "debug83ltO", "workerData": {"native": "yes", "age": "21-25", "gender": "female", "education": "high school", "country": "United States", "mode": "debug", "condition": 0, "engagement": "6", "difficulty": "4"}, "trialData": {"rt": 10248, "hit": "689", "trial": 12, "response_speaker": "machine", "machine_groundtruth": "google", "imageID": "static/dataset/coco_val_set/689.jpg", "page_name": "689_d_0.html/", "counterbalance": 0, "groundtruth": "machine", "human_groundtruth": "", "response_gender": "male"}}, "Trial_173": {"workerID": "debug83ltO", "workerData": {"native": "yes", "age": "21-25", "gender": "female", "education": "high school", "country": "United States", "mode": "debug", "condition": 0, "engagement": "6", "difficulty": "4"}, "trialData": {"rt": 24233, "hit": "2744", "trial": 13, "response_speaker": "machine", "machine_groundtruth": "rekognition", "imageID": "static/dataset/coco_val_set/2744.jpg", "page_name": "2744_e_0.html/", "counterbalance": 0, "groundtruth": "machine", "human_groundtruth": "", "response_gender": "male"}}, "Trial_174": {"workerID": "debug83ltO", "workerData": {"native": "yes", "age": "21-25", "gender": "female", "education": "high school", "country": "United States", "mode": "debug", "condition": 0, "engagement": "6", "difficulty": "4"}, "trialData": {"rt": 7882, "hit": "33", "trial": 14, "response_speaker": "human", "machine_groundtruth": "", "imageID": "static/dataset/coco_val_set/33.jpg", "page_name": "33_a_0.html/", "counterbalance": 0, "groundtruth": "human", "human_groundtruth": "human", "response_gender": "male"}}, "Trial_175": {"workerID": "debug83ltO", "workerData": {"native": "yes", "age": "21-25", "gender": "female", "education": "high school", "country": "United States", "mode": "debug", "condition": 0, "engagement": "6", "difficulty": "4"}, "trialData": {"rt": 7349, "hit": "761", "trial": 15, "response_speaker": "human", "machine_groundtruth": "", "imageID": "static/dataset/coco_val_set/761.jpg", "page_name": "761_a_0.html/", "counterbalance": 0, "groundtruth": "human", "human_groundtruth": "human", "response_gender": "male"}}, "Trial_176": {"workerID": "debug83ltO", "workerData": {"native": "yes", "age": "21-25", "gender": "female", "education": "high school", "country": "United States", "mode": "debug", "condition": 0, "engagement": "6", "difficulty": "4"}, "trialData": {"rt": 10366, "hit": "4640", "trial": 16, "response_speaker": "human", "machine_groundtruth": "", "imageID": "static/dataset/coco_val_set/4640.jpg", "page_name": "4640_a_0.html/", "counterbalance": 0, "groundtruth": "human", "human_groundtruth": "human", "response_gender": "male"}}, "Trial_177": {"workerID": "debug83ltO", "workerData": {"native": "yes", "age": "21-25", "gender": "female", "education": "high school", "country": "United States", "mode": "debug", "condition": 0, "engagement": "6", "difficulty": "4"}, "trialData": {"rt": 9066, "hit": "584", "trial": 17, "response_speaker": "machine", "machine_groundtruth": "azure", "imageID": "static/dataset/coco_val_set/584.jpg", "page_name": "584_b_0.html/", "counterbalance": 0, "groundtruth": "machine", "human_groundtruth": "", "response_gender": "male"}}, "Trial_178": {"workerID": "debug83ltO", "workerData": {"native": "yes", "age": "21-25", "gender": "female", "education": "high school", "country": "United States", "mode": "debug", "condition": 0, "engagement": "6", "difficulty": "4"}, "trialData": {"rt": 10081, "hit": "267", "trial": 18, "response_speaker": "human", "machine_groundtruth": "azure", "imageID": "static/dataset/coco_val_set/267.jpg", "page_name": "267_b_0.html/", "counterbalance": 0, "groundtruth": "machine", "human_groundtruth": "", "response_gender": "male"}}, "Trial_179": {"workerID": "debug83ltO", "workerData": {"native": "yes", "age": "21-25", "gender": "female", "education": "high school", "country": "United States", "mode": "debug", "condition": 0, "engagement": "6", "difficulty": "4"}, "trialData": {"rt": 8266, "hit": "981", "trial": 19, "response_speaker": "machine", "machine_groundtruth": "detectron", "imageID": "static/dataset/coco_val_set/981.jpg", "page_name": "981_c_0.html/", "counterbalance": 0, "groundtruth": "machine", "human_groundtruth": "", "response_gender": "male"}}, "Trial_180": {"workerID": "debug83ltO", "workerData": {"native": "yes", "age": "21-25", "gender": "female", "education": "high school", "country": "United States", "mode": "debug", "condition": 0, "engagement": "6", "difficulty": "4"}, "trialData": {"rt": 24899, "hit": "608", "trial": 20, "response_speaker": "machine", "machine_groundtruth": "", "imageID": "static/dataset/coco_val_set/608.jpg", "page_name": "608_a_0.html/", "counterbalance": 0, "groundtruth": "human", "human_groundtruth": "human", "response_gender": "male"}}, "Trial_182": {"workerID": "debug83ltO", "workerData": {"native": "yes", "age": "21-25", "gender": "female", "education": "high school", "country": "United States", "mode": "debug", "condition": 0, "engagement": "6", "difficulty": "4"}, "trialData": {"rt": 14448, "hit": "225", "trial": 22, "response_speaker": "human", "machine_groundtruth": "", "imageID": "static/dataset/coco_val_set/225.jpg", "page_name": "225_a_0.html/", "counterbalance": 0, "groundtruth": "human", "human_groundtruth": "human", "response_gender": "male"}}, "Trial_183": {"workerID": "debug83ltO", "workerData": {"native": "yes", "age": "21-25", "gender": "female", "education": "high school", "country": "United States", "mode": "debug", "condition": 0, "engagement": "6", "difficulty": "4"}, "trialData": {"rt": 8033, "hit": "360", "trial": 23, "response_speaker": "machine", "machine_groundtruth": "", "imageID": "static/dataset/coco_val_set/360.jpg", "page_name": "360_a_0.html/", "counterbalance": 0, "groundtruth": "human", "human_groundtruth": "human", "response_gender": "male"}}, "Trial_184": {"workerID": "debug83ltO", "workerData": {"native": "yes", "age": "21-25", "gender": "female", "education": "high school", "country": "United States", "mode": "debug", "condition": 0, "engagement": "6", "difficulty": "4"}, "trialData": {"rt": 7382, "hit": "196", "trial": 24, "response_speaker": "machine", "machine_groundtruth": "", "imageID": "static/dataset/coco_val_set/196.jpg", "page_name": "196_a_0.html/", "counterbalance": 0, "groundtruth": "human", "human_groundtruth": "human", "response_gender": "male"}}, "Trial_185": {"workerID": "debug83ltO", "workerData": {"native": "yes", "age": "21-25", "gender": "female", "education": "high school", "country": "United States", "mode": "debug", "condition": 0, "engagement": "6", "difficulty": "4"}, "trialData": {"rt": 11930, "hit": "4787", "trial": 25, "response_speaker": "machine", "machine_groundtruth": "", "imageID": "static/dataset/coco_val_set/4787.jpg", "page_name": "4787_a_0.html/", "counterbalance": 0, "groundtruth": "human", "human_groundtruth": "human", "response_gender": "male"}}, "Trial_186": {"workerID": "debug83ltO", "workerData": {"native": "yes", "age": "21-25", "gender": "female", "education": "high school", "country": "United States", "mode": "debug", "condition": 0, "engagement": "6", "difficulty": "4"}, "trialData": {"rt": 12551, "hit": "944", "trial": 26, "response_speaker": "machine", "machine_groundtruth": "", "imageID": "static/dataset/coco_val_set/944.jpg", "page_name": "944_a_0.html/", "counterbalance": 0, "groundtruth": "human", "human_groundtruth": "human", "response_gender": "male"}}, "Trial_187": {"workerID": "debug83ltO", "workerData": {"native": "yes", "age": "21-25", "gender": "female", "education": "high school", "country": "United States", "mode": "debug", "condition": 0, "engagement": "6", "difficulty": "4"}, "trialData": {"rt": 5049, "hit": "597", "trial": 27, "response_speaker": "machine", "machine_groundtruth": "", "imageID": "static/dataset/coco_val_set/597.jpg", "page_name": "597_a_0.html/", "counterbalance": 0, "groundtruth": "human", "human_groundtruth": "human", "response_gender": "male"}}, "Trial_189": {"workerID": "debug83ltO", "workerData": {"native": "yes", "age": "21-25", "gender": "female", "education": "high school", "country": "United States", "mode": "debug", "condition": 0, "engagement": "6", "difficulty": "4"}, "trialData": {"rt": 7649, "hit": "480", "trial": 29, "response_speaker": "human", "machine_groundtruth": "", "imageID": "static/dataset/coco_val_set/480.jpg", "page_name": "480_a_0.html/", "counterbalance": 0, "groundtruth": "human", "human_groundtruth": "human", "response_gender": "male"}}, "Trial_190": {"workerID": "debug83ltO", "workerData": {"native": "yes", "age": "21-25", "gender": "female", "education": "high school", "country": "United States", "mode": "debug", "condition": 0, "engagement": "6", "difficulty": "4"}, "trialData": {"rt": 11949, "hit": "585", "trial": 30, "response_speaker": "machine", "machine_groundtruth": "detectron", "imageID": "static/dataset/coco_val_set/585.jpg", "page_name": "585_c_0.html/", "counterbalance": 0, "groundtruth": "machine", "human_groundtruth": "", "response_gender": "male"}}, "Trial_191": {"workerID": "debug83ltO", "workerData": {"native": "yes", "age": "21-25", "gender": "female", "education": "high school", "country": "United States", "mode": "debug", "condition": 0, "engagement": "6", "difficulty": "4"}, "trialData": {"rt": 7566, "hit": "950", "trial": 31, "response_speaker": "machine", "machine_groundtruth": "", "imageID": "static/dataset/coco_val_set/950.jpg", "page_name": "950_a_0.html/", "counterbalance": 0, "groundtruth": "human", "human_groundtruth": "human", "response_gender": "male"}}, "Trial_192": {"workerID": "debug83ltO", "workerData": {"native": "yes", "age": "21-25", "gender": "female", "education": "high school", "country": "United States", "mode": "debug", "condition": 0, "engagement": "6", "difficulty": "4"}, "trialData": {"rt": 8333, "hit": "1736", "trial": 32, "response_speaker": "machine", "machine_groundtruth": "rekognition", "imageID": "static/dataset/coco_val_set/1736.jpg", "page_name": "1736_e_0.html/", "counterbalance": 0, "groundtruth": "machine", "human_groundtruth": "", "response_gender": "male"}}, "Trial_193": {"workerID": "debug83ltO", "workerData": {"native": "yes", "age": "21-25", "gender": "female", "education": "high school", "country": "United States", "mode": "debug", "condition": 0, "engagement": "6", "difficulty": "4"}, "trialData": {"rt": 11631, "hit": "148", "trial": 33, "response_speaker": "machine", "machine_groundtruth": "", "imageID": "static/dataset/coco_val_set/148.jpg", "page_name": "148_a_0.html/", "counterbalance": 0, "groundtruth": "human", "human_groundtruth": "human", "response_gender": "male"}}, "Trial_194": {"workerID": "debug83ltO", "workerData": {"native": "yes", "age": "21-25", "gender": "female", "education": "high school", "country": "United States", "mode": "debug", "condition": 0, "engagement": "6", "difficulty": "4"}, "trialData": {"rt": 9081, "hit": "548", "trial": 34, "response_speaker": "machine", "machine_groundtruth": "rekognition", "imageID": "static/dataset/coco_val_set/548.jpg", "page_name": "548_e_0.html/", "counterbalance": 0, "groundtruth": "machine", "human_groundtruth": "", "response_gender": "male"}}, "Trial_195": {"workerID": "debug83ltO", "workerData": {"native": "yes", "age": "21-25", "gender": "female", "education": "high school", "country": "United States", "mode": "debug", "condition": 0, "engagement": "6", "difficulty": "4"}, "trialData": {"rt": 5166, "hit": "362", "trial": 35, "response_speaker": "machine", "machine_groundtruth": "azure", "imageID": "static/dataset/coco_val_set/362.jpg", "page_name": "362_b_0.html/", "counterbalance": 0, "groundtruth": "machine", "human_groundtruth": "", "response_gender": "male"}}, "Trial_198": {"workerID": "debug83ltO", "workerData": {"native": "yes", "age": "21-25", "gender": "female", "education": "high school", "country": "United States", "mode": "debug", "condition": 0, "engagement": "6", "difficulty": "4"}, "trialData": {"rt": 11982, "hit": "278", "trial": 38, "response_speaker": "machine", "machine_groundtruth": "azure", "imageID": "static/dataset/coco_val_set/278.jpg", "page_name": "278_b_0.html/", "counterbalance": 0, "groundtruth": "machine", "human_groundtruth": "", "response_gender": "female"}}, "Trial_199": {"workerID": "debug83ltO", "workerData": {"native": "yes", "age": "21-25", "gender": "female", "education": "high school", "country": "United States", "mode": "debug", "condition": 0, "engagement": "6", "difficulty": "4"}, "trialData": {"rt": 11299, "hit": "4593", "trial": 39, "response_speaker": "machine", "machine_groundtruth": "azure", "imageID": "static/dataset/coco_val_set/4593.jpg", "page_name": "4593_b_0.html/", "counterbalance": 0, "groundtruth": "machine", "human_groundtruth": "", "response_gender": "female"}}, "Trial_200": {"workerID": "debug83ltO", "workerData": {"native": "yes", "age": "21-25", "gender": "female", "education": "high school", "country": "United States", "mode": "debug", "condition": 0, "engagement": "6", "difficulty": "4"}, "trialData": {"rt": 14799, "hit": "426", "trial": 40, "response_speaker": "human", "machine_groundtruth": "detectron", "imageID": "static/dataset/coco_val_set/426.jpg", "page_name": "426_c_0.html/", "counterbalance": 0, "groundtruth": "machine", "human_groundtruth": "", "response_gender": "female"}}, "Trial_202": {"workerID": "debugovudE", "workerData": {"native": "no", "age": "26-30", "gender": "female", "education": "master", "country": "Macedonia, The Former Yugoslav Republic of", "mode": "debug", "condition": 0, "engagement": "7", "difficulty": "7"}, "trialData": {"rt": 8652, "hit": "939", "trial": 2, "response_speaker": "human", "machine_groundtruth": "", "imageID": "static/dataset/coco_val_set/939.jpg", "page_name": "939_a_0.html/", "counterbalance": 0, "groundtruth": "human", "human_groundtruth": "human", "response_gender": "female"}}, "Trial_203": {"workerID": "debugovudE", "workerData": {"native": "no", "age": "26-30", "gender": "female", "education": "master", "country": "Macedonia, The Former Yugoslav Republic of", "mode": "debug", "condition": 0, "engagement": "7", "difficulty": "7"}, "trialData": {"rt": 23961, "hit": "1065", "trial": 3, "response_speaker": "machine", "machine_groundtruth": "", "imageID": "static/dataset/coco_val_set/1065.jpg", "page_name": "1065_a_0.html/", "counterbalance": 0, "groundtruth": "human", "human_groundtruth": "human", "response_gender": "female"}}, "Trial_204": {"workerID": "debugovudE", "workerData": {"native": "no", "age": "26-30", "gender": "female", "education": "master", "country": "Macedonia, The Former Yugoslav Republic of", "mode": "debug", "condition": 0, "engagement": "7", "difficulty": "7"}, "trialData": {"rt": 9941, "hit": "1712", "trial": 4, "response_speaker": "machine", "machine_groundtruth": "azure", "imageID": "static/dataset/coco_val_set/1712.jpg", "page_name": "1712_b_0.html/", "counterbalance": 0, "groundtruth": "machine", "human_groundtruth": "", "response_gender": "female"}}, "Trial_206": {"workerID": "debugovudE", "workerData": {"native": "no", "age": "26-30", "gender": "female", "education": "master", "country": "Macedonia, The Former Yugoslav Republic of", "mode": "debug", "condition": 0, "engagement": "7", "difficulty": "7"}, "trialData": {"rt": 9923, "hit": "5", "trial": 6, "response_speaker": "human", "machine_groundtruth": "", "imageID": "static/dataset/coco_val_set/5.jpg", "page_name": "5_a_0.html/", "counterbalance": 0, "groundtruth": "human", "human_groundtruth": "human", "response_gender": "male"}}, "Trial_207": {"workerID": "debugovudE", "workerData": {"native": "no", "age": "26-30", "gender": "female", "education": "master", "country": "Macedonia, The Former Yugoslav Republic of", "mode": "debug", "condition": 0, "engagement": "7", "difficulty": "7"}, "trialData": {"rt": 15292, "hit": "276", "trial": 7, "response_speaker": "human", "machine_groundtruth": "detectron", "imageID": "static/dataset/coco_val_set/276.jpg", "page_name": "276_c_0.html/", "counterbalance": 0, "groundtruth": "machine", "human_groundtruth": "", "response_gender": "female"}}, "Trial_208": {"workerID": "debugovudE", "workerData": {"native": "no", "age": "26-30", "gender": "female", "education": "master", "country": "Macedonia, The Former Yugoslav Republic of", "mode": "debug", "condition": 0, "engagement": "7", "difficulty": "7"}, "trialData": {"rt": 9110, "hit": "1652", "trial": 8, "response_speaker": "machine", "machine_groundtruth": "detectron", "imageID": "static/dataset/coco_val_set/1652.jpg", "page_name": "1652_c_0.html/", "counterbalance": 0, "groundtruth": "machine", "human_groundtruth": "", "response_gender": "female"}}, "Trial_209": {"workerID": "debugovudE", "workerData": {"native": "no", "age": "26-30", "gender": "female", "education": "master", "country": "Macedonia, The Former Yugoslav Republic of", "mode": "debug", "condition": 0, "engagement": "7", "difficulty": "7"}, "trialData": {"rt": 6742, "hit": "1887", "trial": 9, "response_speaker": "human", "machine_groundtruth": "", "imageID": "static/dataset/coco_val_set/1887.jpg", "page_name": "1887_a_0.html/", "counterbalance": 0, "groundtruth": "human", "human_groundtruth": "human", "response_gender": "female"}}, "Trial_210": {"workerID": "debugovudE", "workerData": {"native": "no", "age": "26-30", "gender": "female", "education": "master", "country": "Macedonia, The Former Yugoslav Republic of", "mode": "debug", "condition": 0, "engagement": "7", "difficulty": "7"}, "trialData": {"rt": 7181, "hit": "945", "trial": 10, "response_speaker": "human", "machine_groundtruth": "", "imageID": "static/dataset/coco_val_set/945.jpg", "page_name": "945_a_0.html/", "counterbalance": 0, "groundtruth": "human", "human_groundtruth": "human", "response_gender": "female"}}, "Trial_211": {"workerID": "debugovudE", "workerData": {"native": "no", "age": "26-30", "gender": "female", "education": "master", "country": "Macedonia, The Former Yugoslav Republic of", "mode": "debug", "condition": 0, "engagement": "7", "difficulty": "7"}, "trialData": {"rt": 11566, "hit": "917", "trial": 11, "response_speaker": "machine", "machine_groundtruth": "", "imageID": "static/dataset/coco_val_set/917.jpg", "page_name": "917_a_0.html/", "counterbalance": 0, "groundtruth": "human", "human_groundtruth": "human", "response_gender": "female"}}, "Trial_212": {"workerID": "debugovudE", "workerData": {"native": "no", "age": "26-30", "gender": "female", "education": "master", "country": "Macedonia, The Former Yugoslav Republic of", "mode": "debug", "condition": 0, "engagement": "7", "difficulty": "7"}, "trialData": {"rt": 11416, "hit": "531", "trial": 12, "response_speaker": "machine", "machine_groundtruth": "", "imageID": "static/dataset/coco_val_set/531.jpg", "page_name": "531_a_0.html/", "counterbalance": 0, "groundtruth": "human", "human_groundtruth": "human", "response_gender": "male"}}, "Trial_213": {"workerID": "debugovudE", "workerData": {"native": "no", "age": "26-30", "gender": "female", "education": "master", "country": "Macedonia, The Former Yugoslav Republic of", "mode": "debug", "condition": 0, "engagement": "7", "difficulty": "7"}, "trialData": {"rt": 11098, "hit": "529", "trial": 13, "response_speaker": "machine", "machine_groundtruth": "detectron", "imageID": "static/dataset/coco_val_set/529.jpg", "page_name": "529_c_0.html/", "counterbalance": 0, "groundtruth": "machine", "human_groundtruth": "", "response_gender": "male"}}, "Trial_214": {"workerID": "debugovudE", "workerData": {"native": "no