{"Trial_Obj_1": {"workerID": "A2JPOXYZM5AJZZ", "workerData": {"country": "United States", "age": "51", "engagement": "6", "difficulty": "6", "mode": "live", "gender": "male", "education": "bachelor", "ai-experience": "2", "condition": 0, "native": "yes"}, "trialData": {"rt": 11564, "Aclass": "Machine", "hit": "352", "imageID": "https://xiaoturing.s3.us-east-1.amazonaws.com/obj_det/240.jpg", "trial": 41, "page_name": "240_d_0.html/", "phase": "TEST", "response_gender": "NA", "response_speaker": "machine", "response_object": "1", "groundtruth": "machine", "object_groundtruth": "0", "machine_groundtruth": "Google"}}, "Trial_Obj_2": {"workerID": "A2JPOXYZM5AJZZ", "workerData": {"country": "United States", "age": "51", "engagement": "6", "difficulty": "6", "mode": "live", "gender": "male", "education": "bachelor", "ai-experience": "2", "condition": 0, "native": "yes"}, "trialData": {"rt": 7907, "Aclass": "Machine", "hit": "2526", "imageID": "https://xiaoturing.s3.us-east-1.amazonaws.com/obj_det/73.jpg", "trial": 42, "page_name": "73_b_0.html/", "phase": "TEST", "response_gender": "NA", "response_speaker": "machine", "response_object": "1", "groundtruth": "machine", "object_groundtruth": "0", "machine_groundtruth": "Azure"}}, "Trial_Obj_3": {"workerID": "A2JPOXYZM5AJZZ", "workerData": {"country": "United States", "age": "51", "engagement": "6", "difficulty": "6", "mode": "live", "gender": "male", "education": "bachelor", "ai-experience": "2", "condition": 0, "native": "yes"}, "trialData": {"rt": 21711, "Aclass": "Machine", "hit": "974", "imageID": "https://xiaoturing.s3.us-east-1.amazonaws.com/obj_det/176.jpg", "trial": 43, "page_name": "176_c_0.html/", "phase": "TEST", "response_gender": "NA", "response_speaker": "machine", "response_object": "2", "groundtruth": "machine", "object_groundtruth": "1", "machine_groundtruth": "Detectron"}}, "Trial_Obj_4": {"workerID": "A2JPOXYZM5AJZZ", "workerData": {"country": "United States", "age": "51", "engagement": "6", "difficulty": "6", "mode": "live", "gender": "male", "education": "bachelor", "ai-experience": "2", "condition": 0, "native": "yes"}, "trialData": {"rt": 5839, "Aclass": "Machine", "hit": "325", "imageID": "https://xiaoturing.s3.us-east-1.amazonaws.com/obj_det/594.jpg", "trial": 44, "page_name": "594_a_0.html/", "phase": "TEST", "response_gender": "NA", "response_speaker": "machine", "response_object": "1", "groundtruth": "human", "object_groundtruth": "0", "machine_groundtruth": ""}}, "Trial_Obj_5": {"workerID": "A2JPOXYZM5AJZZ", "workerData": {"country": "United States", "age": "51", "engagement": "6", "difficulty": "6", "mode": "live", "gender": "male", "education": "bachelor", "ai-experience": "2", "condition": 0, "native": "yes"}, "trialData": {"rt": 6963, "Aclass": "Machine", "hit": "90", "imageID": "https://xiaoturing.s3.us-east-1.amazonaws.com/obj_det/124.jpg", "trial": 45, "page_name": "124_e_0.html/", "phase": "TEST", "response_gender": "NA", "response_speaker": "machine", "response_object": "1", "groundtruth": "machine", "object_groundtruth": "0", "machine_groundtruth": "Rekognition"}}, "Trial_Obj_6": {"workerID": "A2JPOXYZM5AJZZ", "workerData": {"country": "United States", "age": "51", "engagement": "6", "difficulty": "6", "mode": "live", "gender": "male", "education": "bachelor", "ai-experience": "2", "condition": 0, "native": "yes"}, "trialData": {"rt": 8887, "Aclass": "Machine", "imageID": "https://xiaoturing.s3.us-east-1.amazonaws.com/obj_det/474.jpg", "trial": 46, "page_name": "474_a_0.html/", "phase": "TEST", "response_gender": "NA", "response_speaker": "machine", "response_object": "2", "groundtruth": "human", "object_groundtruth": "1", "machine_groundtruth": ""}}, "Trial_Obj_7": {"workerID": "A2JPOXYZM5AJZZ", "workerData": {"country": "United States", "age": "51", "engagement": "6", "difficulty": "6", "mode": "live", "gender": "male", "education": "bachelor", "ai-experience": "2", "condition": 0, "native": "yes"}, "trialData": {"rt": 8834, "Aclass": "Human", "imageID": "https://xiaoturing.s3.us-east-1.amazonaws.com/obj_det/686.jpg", "trial": 47, "page_name": "686_a_0.html/", "phase": "TEST", "response_gender": "NA", "response_speaker": "human", "response_object": "1", "groundtruth": "human", "object_groundtruth": "0", "machine_groundtruth": ""}}, "Trial_Obj_8": {"workerID": "A2JPOXYZM5AJZZ", "workerData": {"country": "United States", "age": "51", "engagement": "6", "difficulty": "6", "mode": "live", "gender": "male", "education": "bachelor", "ai-experience": "2", "condition": 0, "native": "yes"}, "trialData": {"rt": 5624, "Aclass": "Human", "imageID": "https://xiaoturing.s3.us-east-1.amazonaws.com/obj_det/203.jpg", "trial": 48, "page_name": "203_a_0.html/", "phase": "TEST", "response_gender": "NA", "response_speaker": "human", "response_object": "1", "groundtruth": "human", "object_groundtruth": "0", "machine_groundtruth": ""}}, "Trial_Obj_9": {"workerID": "A2JPOXYZM5AJZZ", "workerData": {"country": "United States", "age": "51", "engagement": "6", "difficulty": "6", "mode": "live", "gender": "male", "education": "bachelor", "ai-experience": "2", "condition": 0, "native": "yes"}, "trialData": {"rt": 4275, "Aclass": "Human", "imageID": "https://xiaoturing.s3.us-east-1.amazonaws.com/obj_det/2276.jpg", "trial": 49, "page_name": "2276_c_0.html/", "phase": "TEST", "response_gender": "NA", "response_speaker": "human", "response_object": "1", "groundtruth": "machine", "object_groundtruth": "0", "machine_groundtruth": "Detectron"}}, "Trial_Obj_10": {"workerID": "A2JPOXYZM5AJZZ", "workerData": {"country": "United States", "age": "51", "engagement": "6", "difficulty": "6", "mode": "live", "gender": "male", "education": "bachelor", "ai-experience": "2", "condition": 0, "native": "yes"}, "trialData": {"rt": 8233, "Aclass": "Human", "imageID": "https://xiaoturing.s3.us-east-1.amazonaws.com/obj_det/62.jpg", "trial": 51, "page_name": "62_a_0.html/", "phase": "TEST", "response_gender": "NA", "response_speaker": "human", "response_object": "1", "groundtruth": "human", "object_groundtruth": "0", "machine_groundtruth": ""}}, "Trial_Obj_11": {"workerID": "A2JPOXYZM5AJZZ", "workerData": {"country": "United States", "age": "51", "engagement": "6", "difficulty": "6", "mode": "live", "gender": "male", "education": "bachelor", "ai-experience": "2", "condition": 0, "native": "yes"}, "trialData": {"rt": 10382, "Aclass": "Human", "imageID": "https://xiaoturing.s3.us-east-1.amazonaws.com/obj_det/639.jpg", "trial": 53, "page_name": "639_d_0.html/", "phase": "TEST", "response_gender": "NA", "response_speaker": "human", "response_object": "1", "groundtruth": "machine", "object_groundtruth": "0", "machine_groundtruth": "Google"}}, "Trial_Obj_12": {"workerID": "A2JPOXYZM5AJZZ", "workerData": {"country": "United States", "age": "51", "engagement": "6", "difficulty": "6", "mode": "live", "gender": "male", "education": "bachelor", "ai-experience": "2", "condition": 0, "native": "yes"}, "trialData": {"rt": 5012, "Aclass": "Human", "imageID": "https://xiaoturing.s3.us-east-1.amazonaws.com/obj_det/4089.jpg", "trial": 54, "page_name": "4089_a_0.html/", "phase": "TEST", "response_gender": "NA", "response_speaker": "human", "response_object": "1", "groundtruth": "human", "object_groundtruth": "0", "machine_groundtruth": ""}}, "Trial_Obj_13": {"workerID": "A2JPOXYZM5AJZZ", "workerData": {"country": "United States", "age": "51", "engagement": "6", "difficulty": "6", "mode": "live", "gender": "male", "education": "bachelor", "ai-experience": "2", "condition": 0, "native": "yes"}, "trialData": {"rt": 15812, "Aclass": "Machine", "imageID": "https://xiaoturing.s3.us-east-1.amazonaws.com/obj_det/419.jpg", "trial": 55, "page_name": "419_c_0.html/", "phase": "TEST", "response_gender": "NA", "response_speaker": "machine", "response_object": "2", "groundtruth": "machine", "object_groundtruth": "1", "machine_groundtruth": "Detectron"}}, "Trial_Obj_14": {"workerID": "A2JPOXYZM5AJZZ", "workerData": {"country": "United States", "age": "51", "engagement": "6", "difficulty": "6", "mode": "live", "gender": "male", "education": "bachelor", "ai-experience": "2", "condition": 0, "native": "yes"}, "trialData": {"rt": 7094, "Aclass": "Human", "imageID": "https://xiaoturing.s3.us-east-1.amazonaws.com/obj_det/268.jpg", "trial": 56, "page_name": "268_a_0.html/", "phase": "TEST", "response_gender": "NA", "response_speaker": "human", "response_object": "2", "groundtruth": "human", "object_groundtruth": "1", "machine_groundtruth": ""}}, "Trial_Obj_15": {"workerID": "A2JPOXYZM5AJZZ", "workerData": {"country": "United States", "age": "51", "engagement": "6", "difficulty": "6", "mode": "live", "gender": "male", "education": "bachelor", "ai-experience": "2", "condition": 0, "native": "yes"}, "trialData": {"rt": 10965, "Aclass": "Human", "imageID": "https://xiaoturing.s3.us-east-1.amazonaws.com/obj_det/3878.jpg", "trial": 57, "page_name": "3878_a_0.html/", "phase": "TEST", "response_gender": "NA", "response_speaker": "human", "response_object": "1", "groundtruth": "human", "object_groundtruth": "0", "machine_groundtruth": ""}}, "Trial_Obj_16": {"workerID": "A2JPOXYZM5AJZZ", "workerData": {"country": "United States", "age": "51", "engagement": "6", "difficulty": "6", "mode": "live", "gender": "male", "education": "bachelor", "ai-experience": "2", "condition": 0, "native": "yes"}, "trialData": {"rt": 5629, "Aclass": "Machine", "imageID": "https://xiaoturing.s3.us-east-1.amazonaws.com/obj_det/862.jpg", "trial": 58, "page_name": "862_e_0.html/", "phase": "TEST", "response_gender": "NA", "response_speaker": "machine", "response_object": "2", "groundtruth": "machine", "object_groundtruth": "1", "machine_groundtruth": "Rekognition"}}, "Trial_Obj_17": {"workerID": "A2JPOXYZM5AJZZ", "workerData": {"country": "United States", "age": "51", "engagement": "6", "difficulty": "6", "mode": "live", "gender": "male", "education": "bachelor", "ai-experience": "2", "condition": 0, "native": "yes"}, "trialData": {"rt": 9451, "Aclass": "Machine", "imageID": "https://xiaoturing.s3.us-east-1.amazonaws.com/obj_det/939.jpg", "trial": 60, "page_name": "939_e_0.html/", "phase": "TEST", "response_gender": "NA", "response_speaker": "machine", "response_object": "1", "groundtruth": "machine", "object_groundtruth": "1", "machine_groundtruth": "Rekognition"}}, "Trial_Obj_18": {"workerID": "A2JPOXYZM5AJZZ", "workerData": {"country": "United States", "age": "51", "engagement": "6", "difficulty": "6", "mode": "live", "gender": "male", "education": "bachelor", "ai-experience": "2", "condition": 0, "native": "yes"}, "trialData": {"rt": 7329, "Aclass": "Human", "imageID": "https://xiaoturing.s3.us-east-1.amazonaws.com/obj_det/756.jpg", "trial": 61, "page_name": "756_a_0.html/", "phase": "TEST", "response_gender": "NA", "response_speaker": "human", "response_object": "1", "groundtruth": "human", "object_groundtruth": "0", "machine_groundtruth": ""}}, "Trial_Obj_19": {"workerID": "A2JPOXYZM5AJZZ", "workerData": {"country": "United States", "age": "51", "engagement": "6", "difficulty": "6", "mode": "live", "gender": "male", "education": "bachelor", "ai-experience": "2", "condition": 0, "native": "yes"}, "trialData": {"rt": 8276, "Aclass": "Human", "imageID": "https://xiaoturing.s3.us-east-1.amazonaws.com/obj_det/865.jpg", "trial": 62, "page_name": "865_d_0.html/", "phase": "TEST", "response_gender": "NA", "response_speaker": "human", "response_object": "1", "groundtruth": "machine", "object_groundtruth": "0", "machine_groundtruth": "Google"}}, "Trial_Obj_20": {"workerID": "A2JPOXYZM5AJZZ", "workerData": {"country": "United States", "age": "51", "engagement": "6", "difficulty": "6", "mode": "live", "gender": "male", "education": "bachelor", "ai-experience": "2", "condition": 0, "native": "yes"}, "trialData": {"rt": 20838, "Aclass": "Human", "imageID": "https://xiaoturing.s3.us-east-1.amazonaws.com/obj_det/2595.jpg", "trial": 63, "page_name": "2595_b_0.html/", "phase": "TEST", "response_gender": "NA", "response_speaker": "human", "response_object": "1", "groundtruth": "machine", "object_groundtruth": "0", "machine_groundtruth": "Azure"}}, "Trial_Obj_21": {"workerID": "A2JPOXYZM5AJZZ", "workerData": {"country": "United States", "age": "51", "engagement": "6", "difficulty": "6", "mode": "live", "gender": "male", "education": "bachelor", "ai-experience": "2", "condition": 0, "native": "yes"}, "trialData": {"rt": 14492, "Aclass": "Human", "imageID": "https://xiaoturing.s3.us-east-1.amazonaws.com/obj_det/2694.jpg", "trial": 64, "page_name": "2694_a_0.html/", "phase": "TEST", "response_gender": "NA", "response_speaker": "human", "response_object": "1", "groundtruth": "human", "object_groundtruth": "0", "machine_groundtruth": ""}}, "Trial_Obj_22": {"workerID": "A2JPOXYZM5AJZZ", "workerData": {"country": "United States", "age": "51", "engagement": "6", "difficulty": "6", "mode": "live", "gender": "male", "education": "bachelor", "ai-experience": "2", "condition": 0, "native": "yes"}, "trialData": {"rt": 9454, "Aclass": "Machine", "imageID": "https://xiaoturing.s3.us-east-1.amazonaws.com/obj_det/549.jpg", "trial": 65, "page_name": "549_a_0.html/", "phase": "TEST", "response_gender": "NA", "response_speaker": "machine", "response_object": "2", "groundtruth": "human", "object_groundtruth": "1", "machine_groundtruth": ""}}, "Trial_Obj_23": {"workerID": "A2JPOXYZM5AJZZ", "workerData": {"country": "United States", "age": "51", "engagement": "6", "difficulty": "6", "mode": "live", "gender": "male", "education": "bachelor", "ai-experience": "2", "condition": 0, "native": "yes"}, "trialData": {"rt": 14633, "Aclass": "Human", "imageID": "https://xiaoturing.s3.us-east-1.amazonaws.com/obj_det/476.jpg", "trial": 66, "page_name": "476_a_0.html/", "phase": "TEST", "response_gender": "NA", "response_speaker": "human", "response_object": "2", "groundtruth": "human", "object_groundtruth": "1", "machine_groundtruth": ""}}, "Trial_Obj_24": {"workerID": "A2JPOXYZM5AJZZ", "workerData": {"country": "United States", "age": "51", "engagement": "6", "difficulty": "6", "mode": "live", "gender": "male", "education": "bachelor", "ai-experience": "2", "condition": 0, "native": "yes"}, "trialData": {"rt": 9141, "Aclass": "Human", "imageID": "https://xiaoturing.s3.us-east-1.amazonaws.com/obj_det/90.jpg", "trial": 68, "page_name": "90_a_0.html/", "phase": "TEST", "response_gender": "NA", "response_speaker": "human", "response_object": "2", "groundtruth": "human", "object_groundtruth": "1", "machine_groundtruth": ""}}, "Trial_Obj_25": {"workerID": "A2JPOXYZM5AJZZ", "workerData": {"country": "United States", "age": "51", "engagement": "6", "difficulty": "6", "mode": "live", "gender": "male", "education": "bachelor", "ai-experience": "2", "condition": 0, "native": "yes"}, "trialData": {"rt": 7695, "Aclass": "Machine", "imageID": "https://xiaoturing.s3.us-east-1.amazonaws.com/obj_det/938.jpg", "trial": 69, "page_name": "938_d_0.html/", "phase": "TEST", "response_gender": "NA", "response_speaker": "machine", "response_object": "1", "groundtruth": "machine", "object_groundtruth": "0", "machine_groundtruth": "Google"}}, "Trial_Obj_26": {"workerID": "A2JPOXYZM5AJZZ", "workerData": {"country": "United States", "age": "51", "engagement": "6", "difficulty": "6", "mode": "live", "gender": "male", "education": "bachelor", "ai-experience": "2", "condition": 0, "native": "yes"}, "trialData": {"rt": 6745, "Aclass": "Human", "imageID": "https://xiaoturing.s3.us-east-1.amazonaws.com/obj_det/600.jpg", "trial": 70, "page_name": "600_a_0.html/", "phase": "TEST", "response_gender": "NA", "response_speaker": "human", "response_object": "2", "groundtruth": "human", "object_groundtruth": "1", "machine_groundtruth": ""}}, "Trial_Obj_27": {"workerID": "A2JPOXYZM5AJZZ", "workerData": {"country": "United States", "age": "51", "engagement": "6", "difficulty": "6", "mode": "live", "gender": "male", "education": "bachelor", "ai-experience": "2", "condition": 0, "native": "yes"}, "trialData": {"rt": 6901, "Aclass": "Machine", "imageID": "https://xiaoturing.s3.us-east-1.amazonaws.com/obj_det/777.jpg", "trial": 71, "page_name": "777_e_0.html/", "phase": "TEST", "response_gender": "NA", "response_speaker": "machine", "response_object": "2", "groundtruth": "machine", "object_groundtruth": "1", "machine_groundtruth": "Rekognition"}}, "Trial_Obj_28": {"workerID": "A2JPOXYZM5AJZZ", "workerData": {"country": "United States", "age": "51", "engagement": "6", "difficulty": "6", "mode": "live", "gender": "male", "education": "bachelor", "ai-experience": "2", "condition": 0, "native": "yes"}, "trialData": {"rt": 13477, "Aclass": "Machine", "imageID": "https://xiaoturing.s3.us-east-1.amazonaws.com/obj_det/338.jpg", "trial": 72, "page_name": "338_b_0.html/", "phase": "TEST", "response_gender": "NA", "response_speaker": "machine", "response_object": "2", "groundtruth": "machine", "object_groundtruth": "1", "machine_groundtruth": "Azure"}}, "Trial_Obj_29": {"workerID": "A2JPOXYZM5AJZZ", "workerData": {"country": "United States", "age": "51", "engagement": "6", "difficulty": "6", "mode": "live", "gender": "male", "education": "bachelor", "ai-experience": "2", "condition": 0, "native": "yes"}, "trialData": {"rt": 11628, "Aclass": "Human", "imageID": "https://xiaoturing.s3.us-east-1.amazonaws.com/obj_det/796.jpg", "trial": 76, "page_name": "796_a_0.html/", "phase": "TEST", "response_gender": "NA", "response_speaker": "human", "response_object": "1", "groundtruth": "human", "object_groundtruth": "0", "machine_groundtruth": ""}}, "Trial_Obj_30": {"workerID": "A2JPOXYZM5AJZZ", "workerData": {"country": "United States", "age": "51", "engagement": "6", "difficulty": "6", "mode": "live", "gender": "male", "education": "bachelor", "ai-experience": "2", "condition": 0, "native": "yes"}, "trialData": {"rt": 6805, "Aclass": "Human", "imageID": "https://xiaoturing.s3.us-east-1.amazonaws.com/obj_det/2173.jpg", "trial": 77, "page_name": "2173_a_0.html/", "phase": "TEST", "response_gender": "NA", "response_speaker": "human", "response_object": "2", "groundtruth": "human", "object_groundtruth": "1", "machine_groundtruth": ""}}, "Trial_Obj_31": {"workerID": "A2JPOXYZM5AJZZ", "workerData": {"country": "United States", "age": "51", "engagement": "6", "difficulty": "6", "mode": "live", "gender": "male", "education": "bachelor", "ai-experience": "2", "condition": 0, "native": "yes"}, "trialData": {"rt": 5608, "Aclass": "Human", "imageID": "https://xiaoturing.s3.us-east-1.amazonaws.com/obj_det/692.jpg", "trial": 78, "page_name": "692_a_0.html/", "phase": "TEST", "response_gender": "NA", "response_speaker": "human", "response_object": "1", "groundtruth": "human", "object_groundtruth": "0", "machine_groundtruth": ""}}, "Trial_Obj_32": {"workerID": "A2JPOXYZM5AJZZ", "workerData": {"country": "United States", "age": "51", "engagement": "6", "difficulty": "6", "mode": "live", "gender": "male", "education": "bachelor", "ai-experience": "2", "condition": 0, "native": "yes"}, "trialData": {"rt": 9127, "Aclass": "Machine", "imageID": "https://xiaoturing.s3.us-east-1.amazonaws.com/obj_det/282.jpg", "trial": 79, "page_name": "282_b_0.html/", "phase": "TEST", "response_gender": "NA", "response_speaker": "machine", "response_object": "2", "groundtruth": "machine", "object_groundtruth": "1", "machine_groundtruth": "Azure"}}, "Trial_Obj_33": {"workerID": "A2JPOXYZM5AJZZ", "workerData": {"country": "United States", "age": "51", "engagement": "6", "difficulty": "6", "mode": "live", "gender": "male", "education": "bachelor", "ai-experience": "2", "condition": 0, "native": "yes"}, "trialData": {"rt": 6169, "Aclass": "Machine", "imageID": "https://xiaoturing.s3.us-east-1.amazonaws.com/obj_det/807.jpg", "trial": 81, "page_name": "807_d_0.html/", "phase": "TEST", "response_gender": "NA", "response_speaker": "machine", "response_object": "2", "groundtruth": "machine", "object_groundtruth": "1", "machine_groundtruth": "Google"}}, "Trial_Obj_34": {"workerID": "A2JPOXYZM5AJZZ", "workerData": {"country": "United States", "age": "51", "engagement": "6", "difficulty": "6", "mode": "live", "gender": "male", "education": "bachelor", "ai-experience": "2", "condition": 0, "native": "yes"}, "trialData": {"rt": 10483, "Aclass": "Human", "imageID": "https://xiaoturing.s3.us-east-1.amazonaws.com/obj_det/352.jpg", "trial": 82, "page_name": "352_b_0.html/", "phase": "TEST", "response_gender": "NA", "response_speaker": "human", "response_object": "2", "groundtruth": "machine", "object_groundtruth": "1", "machine_groundtruth": "Azure"}}, "Trial_Obj_35": {"workerID": "A2JPOXYZM5AJZZ", "workerData": {"country": "United States", "age": "51", "engagement": "6", "difficulty": "6", "mode": "live", "gender": "male", "education": "bachelor", "ai-experience": "2", "condition": 0, "native": "yes"}, "trialData": {"rt": 5357, "Aclass": "Human", "imageID": "https://xiaoturing.s3.us-east-1.amazonaws.com/obj_det/267.jpg", "trial": 83, "page_name": "267_e_0.html/", "phase": "TEST", "response_gender": "NA", "response_speaker": "human", "response_object": "1", "groundtruth": "machine", "object_groundtruth": "0", "machine_groundtruth": "Rekognition"}}, "Trial_Obj_36": {"workerID": "A2JPOXYZM5AJZZ", "workerData": {"country": "United States", "age": "51", "engagement": "6", "difficulty": "6", "mode": "live", "gender": "male", "education": "bachelor", "ai-experience": "2", "condition": 0, "native": "yes"}, "trialData": {"rt": 17705, "Aclass": "Human", "imageID": "https://xiaoturing.s3.us-east-1.amazonaws.com/obj_det/957.jpg", "trial": 85, "page_name": "957_a_0.html/", "phase": "TEST", "response_gender": "NA", "response_speaker": "human", "response_object": "1", "groundtruth": "human", "object_groundtruth": "1", "machine_groundtruth": ""}}, "Trial_Obj_37": {"workerID": "A2JPOXYZM5AJZZ", "workerData": {"country": "United States", "age": "51", "engagement": "6", "difficulty": "6", "mode": "live", "gender": "male", "education": "bachelor", "ai-experience": "2", "condition": 0, "native": "yes"}, "trialData": {"rt": 18882, "Aclass": "Human", "imageID": "https://xiaoturing.s3.us-east-1.amazonaws.com/obj_det/974.jpg", "trial": 86, "page_name": "974_a_0.html/", "phase": "TEST", "response_gender": "NA", "response_speaker": "human", "response_object": "1", "groundtruth": "human", "object_groundtruth": "0", "machine_groundtruth": ""}}, "Trial_Obj_38": {"workerID": "A2JPOXYZM5AJZZ", "workerData": {"country": "United States", "age": "51", "engagement": "6", "difficulty": "6", "mode": "live", "gender": "male", "education": "bachelor", "ai-experience": "2", "condition": 0, "native": "yes"}, "trialData": {"rt": 15943, "Aclass": "Machine", "imageID": "https://xiaoturing.s3.us-east-1.amazonaws.com/obj_det/114.jpg", "trial": 87, "page_name": "114_c_0.html/", "phase": "TEST", "response_gender": "NA", "response_speaker": "machine", "response_object": "2", "groundtruth": "machine", "object_groundtruth": "0", "machine_groundtruth": "Detectron"}}, "Trial_Obj_39": {"workerID": "A2JPOXYZM5AJZZ", "workerData": {"country": "United States", "age": "51", "engagement": "6", "difficulty": "6", "mode": "live", "gender": "male", "education": "bachelor", "ai-experience": "2", "condition": 0, "native": "yes"}, "trialData": {"rt": 7829, "Aclass": "Human", "imageID": "https://xiaoturing.s3.us-east-1.amazonaws.com/obj_det/325.jpg", "trial": 88, "page_name": "325_a_0.html/", "phase": "TEST", "response_gender": "NA", "response_speaker": "human", "response_object": "2", "groundtruth": "human", "object_groundtruth": "1", "machine_groundtruth": ""}}, "Trial_Obj_40": {"workerID": "A2JPOXYZM5AJZZ", "workerData": {"country": "United States", "age": "51", "engagement": "6", "difficulty": "6", "mode": "live", "gender": "male", "education": "bachelor", "ai-experience": "2", "condition": 0, "native": "yes"}, "trialData": {"rt": 14200, "Aclass": "Machine", "imageID": "https://xiaoturing.s3.us-east-1.amazonaws.com/obj_det/1282.jpg", "trial": 89, "page_name": "1282_c_0.html/", "phase": "TEST", "response_gender": "NA", "response_speaker": "machine", "response_object": "1", "groundtruth": "machine", "object_groundtruth": "0", "machine_groundtruth": "Detectron"}}, "Trial_Obj_41": {"workerID": "A36H3PO6JZD414", "workerData": {"country": "United States", "age": "51", "engagement": "9", "difficulty": "9", "mode": "live", "gender": "male", "education": "high school", "ai-experience": "1", "condition": 0, "native": "yes"}, "trialData": {"rt": 9466, "Aclass": "Human", "hit": "908", "imageID": "https://xiaoturing.s3.us-east-1.amazonaws.com/obj_det/411.jpg", "trial": 41, "page_name": "411_a_0.html/", "phase": "TEST", "response_gender": "NA", "response_speaker": "human", "response_object": "2", "groundtruth": "human", "object_groundtruth": "1", "machine_groundtruth": ""}}, "Trial_Obj_42": {"workerID": "A36H3PO6JZD414", "workerData": {"country": "United States", "age": "51", "engagement": "9", "difficulty": "9", "mode": "live", "gender": "male", "education": "high school", "ai-experience": "1", "condition": 0, "native": "yes"}, "trialData": {"rt": 11603, "Aclass": "Machine", "hit": "121", "imageID": "https://xiaoturing.s3.us-east-1.amazonaws.com/obj_det/418.jpg", "trial": 42, "page_name": "418_a_0.html/", "phase": "TEST", "response_gender": "NA", "response_speaker": "machine", "response_object": "1", "groundtruth": "human", "object_groundtruth": "0", "machine_groundtruth": ""}}, "Trial_Obj_43": {"workerID": "A36H3PO6JZD414", "workerData": {"country": "United States", "age": "51", "engagement": "9", "difficulty": "9", "mode": "live", "gender": "male", "education": "high school", "ai-experience": "1", "condition": 0, "native": "yes"}, "trialData": {"rt": 6877, "Aclass": "Human", "hit": "3269", "imageID": "https://xiaoturing.s3.us-east-1.amazonaws.com/obj_det/1284.jpg", "trial": 43, "page_name": "1284_a_0.html/", "phase": "TEST", "response_gender": "NA", "response_speaker": "human", "response_object": "1", "groundtruth": "human", "object_groundtruth": "0", "machine_groundtruth": ""}}, "Trial_Obj_44": {"workerID": "A36H3PO6JZD414", "workerData": {"country": "United States", "age": "51", "engagement": "9", "difficulty": "9", "mode": "live", "gender": "male", "education": "high school", "ai-experience": "1", "condition": 0, "native": "yes"}, "trialData": {"rt": 6062, "Aclass": "Machine", "hit": "409", "imageID": "https://xiaoturing.s3.us-east-1.amazonaws.com/obj_det/4319.jpg", "trial": 44, "page_name": "4319_b_0.html/", "phase": "TEST", "response_gender": "NA", "response_speaker": "machine", "response_object": "1", "groundtruth": "machine", "object_groundtruth": "0", "machine_groundtruth": "Azure"}}, "Trial_Obj_45": {"workerID": "A36H3PO6JZD414", "workerData": {"country": "United States", "age": "51", "engagement": "9", "difficulty": "9", "mode": "live", "gender": "male", "education": "high school", "ai-experience": "1", "condition": 0, "native": "yes"}, "trialData": {"rt": 14648, "Aclass": "Human", "hit": "267", "imageID": "https://xiaoturing.s3.us-east-1.amazonaws.com/obj_det/760.jpg", "trial": 45, "page_name": "760_b_0.html/", "phase": "TEST", "response_gender": "NA", "response_speaker": "human", "response_object": "1", "groundtruth": "machine", "object_groundtruth": "0", "machine_groundtruth": "Azure"}}, "Trial_Obj_46": {"workerID": "A36H3PO6JZD414", "workerData": {"country": "United States", "age": "51", "engagement": "9", "difficulty": "9", "mode": "live", "gender": "male", "education": "high school", "ai-experience": "1", "condition": 0, "native": "yes"}, "trialData": {"rt": 10123, "Aclass": "Machine", "imageID": "https://xiaoturing.s3.us-east-1.amazonaws.com/obj_det/2810.jpg", "trial": 46, "page_name": "2810_c_0.html/", "phase": "TEST", "response_gender": "NA", "response_speaker": "machine", "response_object": "1", "groundtruth": "machine", "object_groundtruth": "0", "machine_groundtruth": "Detectron"}}, "Trial_Obj_47": {"workerID": "A36H3PO6JZD414", "workerData": {"country": "United States", "age": "51", "engagement": "9", "difficulty": "9", "mode": "live", "gender": "male", "education": "high school", "ai-experience": "1", "condition": 0, "native": "yes"}, "trialData": {"rt": 10368, "Aclass": "Machine", "imageID": "https://xiaoturing.s3.us-east-1.amazonaws.com/obj_det/585.jpg", "trial": 47, "page_name": "585_b_0.html/", "phase": "TEST", "response_gender": "NA", "response_speaker": "machine", "response_object": "2", "groundtruth": "machine", "object_groundtruth": "1", "machine_groundtruth": "Azure"}}, "Trial_Obj_48": {"workerID": "A36H3PO6JZD414", "workerData": {"country": "United States", "age": "51", "engagement": "9", "difficulty": "9", "mode": "live", "gender": "male", "education": "high school", "ai-experience": "1", "condition": 0, "native": "yes"}, "trialData": {"rt": 13640, "Aclass": "Machine", "imageID": "https://xiaoturing.s3.us-east-1.amazonaws.com/obj_det/570.jpg", "trial": 48, "page_name": "570_b_0.html/", "phase": "TEST", "response_gender": "NA", "response_speaker": "machine", "response_object": "2", "groundtruth": "machine", "object_groundtruth": "1", "machine_groundtruth": "Azure"}}, "Trial_Obj_49": {"workerID": "A36H3PO6JZD414", "workerData": {"country": "United States", "age": "51", "engagement": "9", "difficulty": "9", "mode": "live", "gender": "male", "education": "high school", "ai-experience": "1", "condition": 0, "native": "yes"}, "trialData": {"rt": 5240, "Aclass": "Human", "imageID": "https://xiaoturing.s3.us-east-1.amazonaws.com/obj_det/686.jpg", "trial": 49, "page_name": "686_a_0.html/", "phase": "TEST", "response_gender": "NA", "response_speaker": "human", "response_object": "1", "groundtruth": "human", "object_groundtruth": "0", "machine_groundtruth": ""}}, "Trial_Obj_50": {"workerID": "A36H3PO6JZD414", "workerData": {"country": "United States", "age": "51", "engagement": "9", "difficulty": "9", "mode": "live", "gender": "male", "education": "high school", "ai-experience": "1", "condition": 0, "native": "yes"}, "trialData": {"rt": 19364, "Aclass": "Machine", "imageID": "https://xiaoturing.s3.us-east-1.amazonaws.com/obj_det/963.jpg", "trial": 50, "page_name": "963_d_0.html/", "phase": "TEST", "response_gender": "NA", "response_speaker": "machine", "response_object": "2", "groundtruth": "machine", "object_groundtruth": "1", "machine_groundtruth": "Google"}}, "Trial_Obj_51": {"workerID": "A36H3PO6JZD414", "workerData": {"country": "United States", "age": "51", "engagement": "9", "difficulty": "9", "mode": "live", "gender": "male", "education": "high school", "ai-experience": "1", "condition": 0, "native": "yes"}, "trialData": {"rt": 9082, "Aclass": "Machine", "imageID": "https://xiaoturing.s3.us-east-1.amazonaws.com/obj_det/570.jpg", "trial": 52, "page_name": "570_e_0.html/", "phase": "TEST", "response_gender": "NA", "response_speaker": "machine", "response_object": "2", "groundtruth": "machine", "object_groundtruth": "1", "machine_groundtruth": "Rekognition"}}, "Trial_Obj_52": {"workerID": "A36H3PO6JZD414", "workerData": {"country": "United States", "age": "51", "engagement": "9", "difficulty": "9", "mode": "live", "gender": "male", "education": "high school", "ai-experience": "1", "condition": 0, "native": "yes"}, "trialData": {"rt": 8654, "Aclass": "Machine", "imageID": "https://xiaoturing.s3.us-east-1.amazonaws.com/obj_det/994.jpg", "trial": 53, "page_name": "994_e_0.html/", "phase": "TEST", "response_gender": "NA", "response_speaker": "machine", "response_object": "2", "groundtruth": "machine", "object_groundtruth": "1", "machine_groundtruth": "Rekognition"}}, "Trial_Obj_53": {"workerID": "A36H3PO6JZD414", "workerData": {"country": "United States", "age": "51", "engagement": "9", "difficulty": "9", "mode": "live", "gender": "male", "education": "high school", "ai-experience": "1", "condition": 0, "native": "yes"}, "trialData": {"rt": 12083, "Aclass": "Machine", "imageID": "https://xiaoturing.s3.us-east-1.amazonaws.com/obj_det/100.jpg", "trial": 54, "page_name": "100_a_0.html/", "phase": "TEST", "response_gender": "NA", "response_speaker": "machine", "response_object": "2", "groundtruth": "human", "object_groundtruth": "1", "machine_groundtruth": ""}}, "Trial_Obj_54": {"workerID": "A36H3PO6JZD414", "workerData": {"country": "United States", "age": "51", "engagement": "9", "difficulty": "9", "mode": "live", "gender": "male", "education": "high school", "ai-experience": "1", "condition": 0, "native": "yes"}, "trialData": {"rt": 14060, "Aclass": "Machine", "imageID": "https://xiaoturing.s3.us-east-1.amazonaws.com/obj_det/2659.jpg", "trial": 55, "page_name": "2659_c_0.html/", "phase": "TEST", "response_gender": "NA", "response_speaker": "machine", "response_object": "2", "groundtruth": "machine", "object_groundtruth": "1", "machine_groundtruth": "Detectron"}}, "Trial_Obj_55": {"workerID": "A36H3PO6JZD414", "workerData": {"country": "United States", "age": "51", "engagement": "9", "difficulty": "9", "mode": "live", "gender": "male", "education": "high school", "ai-experience": "1", "condition": 0, "native": "yes"}, "trialData": {"rt": 7288, "Aclass": "Human", "imageID": "https://xiaoturing.s3.us-east-1.amazonaws.com/obj_det/202.jpg", "trial": 56, "page_name": "202_c_0.html/", "phase": "TEST", "response_gender": "NA", "response_speaker": "human", "response_object": "2", "groundtruth": "machine", "object_groundtruth": "0", "machine_groundtruth": "Detectron"}}, "Trial_Obj_56": {"workerID": "A36H3PO6JZD414", "workerData": {"country": "United States", "age": "51", "engagement": "9", "difficulty": "9", "mode": "live", "gender": "male", "education": "high school", "ai-experience": "1", "condition": 0, "native": "yes"}, "trialData": {"rt": 10508, "Aclass": "Human", "imageID": "https://xiaoturing.s3.us-east-1.amazonaws.com/obj_det/2642.jpg", "trial": 57, "page_name": "2642_a_0.html/", "phase": "TEST", "response_gender": "NA", "response_speaker": "human", "response_object": "2", "groundtruth": "human", "object_groundtruth": "1", "machine_groundtruth": ""}}, "Trial_Obj_57": {"workerID": "A36H3PO6JZD414", "workerData": {"country": "United States", "age": "51", "engagement": "9", "difficulty": "9", "mode": "live", "gender": "male", "education": "high school", "ai-experience": "1", "condition": 0, "native": "yes"}, "trialData": {"rt": 8565, "Aclass": "Human", "imageID": "https://xiaoturing.s3.us-east-1.amazonaws.com/obj_det/3366.jpg", "trial": 58, "page_name": "3366_a_0.html/", "phase": "TEST", "response_gender": "NA", "response_speaker": "human", "response_object": "2", "groundtruth": "human", "object_groundtruth": "0", "machine_groundtruth": ""}}, "Trial_Obj_58": {"workerID": "A36H3PO6JZD414", "workerData": {"country": "United States", "age": "51", "engagement": "9", "difficulty": "9", "mode": "live", "gender": "male", "education": "high school", "ai-experience": "1", "condition": 0, "native": "yes"}, "trialData": {"rt": 14157, "Aclass": "Human", "imageID": "https://xiaoturing.s3.us-east-1.amazonaws.com/obj_det/2526.jpg", "trial": 59, "page_name": "2526_a_0.html/", "phase": "TEST", "response_gender": "NA", "response_speaker": "human", "response_object": "2", "groundtruth": "human", "object_groundtruth": "1", "machine_groundtruth": ""}}, "Trial_Obj_59": {"workerID": "A36H3PO6JZD414", "workerData": {"country": "United States", "age": "51", "engagement": "9", "difficulty": "9", "mode": "live", "gender": "male", "education": "high school", "ai-experience": "1", "condition": 0, "native": "yes"}, "trialData": {"rt": 13090, "Aclass": "Human", "imageID": "https://xiaoturing.s3.us-east-1.amazonaws.com/obj_det/493.jpg", "trial": 61, "page_name": "493_d_0.html/", "phase": "TEST", "response_gender": "NA", "response_speaker": "human", "response_object": "1", "groundtruth": "machine", "object_groundtruth": "0", "machine_groundtruth": "Google"}}, "Trial_Obj_60": {"workerID": "A36H3PO6JZD414", "workerData": {"country": "United States", "age": "51", "engagement": "9", "difficulty": "9", "mode": "live", "gender": "male", "education": "high school", "ai-experience": "1", "condition": 0, "native": "yes"}, "trialData": {"rt": 8941, "Aclass": "Human", "imageID": "https://xiaoturing.s3.us-east-1.amazonaws.com/obj_det/345.jpg", "trial": 62, "page_name": "345_e_0.html/", "phase": "TEST", "response_gender": "NA", "response_speaker": "human", "response_object": "1", "groundtruth": "machine", "object_groundtruth": "0", "machine_groundtruth": "Rekognition"}}, "Trial_Obj_61": {"workerID": "A36H3PO6JZD414", "workerData": {"country": "United States", "age": "51", "engagement": "9", "difficulty": "9", "mode": "live", "gender": "male", "education": "high school", "ai-experience": "1", "condition": 0, "native": "yes"}, "trialData": {"rt": 18663, "Aclass": "Human", "imageID": "https://xiaoturing.s3.us-east-1.amazonaws.com/obj_det/132.jpg", "trial": 63, "page_name": "132_d_0.html/", "phase": "TEST", "response_gender": "NA", "response_speaker": "human", "response_object": "1", "groundtruth": "machine", "object_groundtruth": "1", "machine_groundtruth": "Google"}}, "Trial_Obj_62": {"workerID": "A36H3PO6JZD414", "workerData": {"country": "United States", "age": "51", "engagement": "9", "difficulty": "9", "mode": "live", "gender": "male", "education": "high school", "ai-experience": "1", "condition": 0, "native": "yes"}, "trialData": {"rt": 9967, "Aclass": "Human", "imageID": "https://xiaoturing.s3.us-east-1.amazonaws.com/obj_det/819.jpg", "trial": 65, "page_name": "819_a_0.html/", "phase": "TEST", "response_gender": "NA", "response_speaker": "human", "response_object": "2", "groundtruth": "human", "object_groundtruth": "1", "machine_groundtruth": ""}}, "Trial_Obj_63": {"workerID": "A36H3PO6JZD414", "workerData": {"country": "United States", "age": "51", "engagement": "9", "difficulty": "9", "mode": "live", "gender": "male", "education": "high school", "ai-experience": "1", "condition": 0, "native": "yes"}, "trialData": {"rt": 8120, "Aclass": "Machine", "imageID": "https://xiaoturing.s3.us-east-1.amazonaws.com/obj_det/4123.jpg", "trial": 66, "page_name": "4123_e_0.html/", "phase": "TEST", "response_gender": "NA", "response_speaker": "machine", "response_object": "2", "groundtruth": "machine", "object_groundtruth": "1", "machine_groundtruth": "Rekognition"}}, "Trial_Obj_64": {"workerID": "A36H3PO6JZD414", "workerData": {"country": "United States", "age": "51", "engagement": "9", "difficulty": "9", "mode": "live", "gender": "male", "education": "high school", "ai-experience": "1", "condition": 0, "native": "yes"}, "trialData": {"rt": 6676, "Aclass": "Human", "imageID": "https://xiaoturing.s3.us-east-1.amazonaws.com/obj_det/409.jpg", "trial": 68, "page_name": "409_c_0.html/", "phase": "TEST", "response_gender": "NA", "response_speaker": "human", "response_object": "2", "groundtruth": "machine", "object_groundtruth": "1", "machine_groundtruth": "Detectron"}}, "Trial_Obj_65": {"workerID": "A36H3PO6JZD414", "workerData": {"country": "United States", "age": "51", "engagement": "9", "difficulty": "9", "mode": "live", "gender": "male", "education": "high school", "ai-experience": "1", "condition": 0, "native": "yes"}, "trialData": {"rt": 11418, "Aclass": "Human", "imageID": "https://xiaoturing.s3.us-east-1.amazonaws.com/obj_det/383.jpg", "trial": 70, "page_name": "383_a_0.html/", "phase": "TEST", "response_gender": "NA", "response_speaker": "human", "response_object": "1", "groundtruth": "human", "object_groundtruth": "0", "machine_groundtruth": ""}}, "Trial_Obj_66": {"workerID": "A36H3PO6JZD414", "workerData": {"country": "United States", "age": "51", "engagement": "9", "difficulty": "9", "mode": "live", "gender": "male", "education": "high school", "ai-experience": "1", "condition": 0, "native": "yes"}, "trialData": {"rt": 9275, "Aclass": "Machine", "imageID": "https://xiaoturing.s3.us-east-1.amazonaws.com/obj_det/616.jpg", "trial": 71, "page_name": "616_a_0.html/", "phase": "TEST", "response_gender": "NA", "response_speaker": "machine", "response_object": "2", "groundtruth": "human", "object_groundtruth": "1", "machine_groundtruth": ""}}, "Trial_Obj_67": {"workerID": "A36H3PO6JZD414", "workerData": {"country": "United States", "age": "51", "engagement": "9", "difficulty": "9", "mode": "live", "gender": "male", "education": "high school", "ai-experience": "1", "condition": 0, "native": "yes"}, "trialData": {"rt": 8689, "Aclass": "Human", "imageID": "https://xiaoturing.s3.us-east-1.amazonaws.com/obj_det/119.jpg", "trial": 73, "page_name": "119_c_0.html/", "phase": "TEST", "response_gender": "NA", "response_speaker": "human", "response_object": "1", "groundtruth": "machine", "object_groundtruth": "0", "machine_groundtruth": "Detectron"}}, "Trial_Obj_68": {"workerID": "A36H3PO6JZD414", "workerData": {"country": "United States", "age": "51", "engagement": "9", "difficulty": "9", "mode": "live", "gender": "male", "education": "high school", "ai-experience": "1", "condition": 0, "native": "yes"}, "trialData": {"rt": 11103, "Aclass": "Machine", "imageID": "https://xiaoturing.s3.us-east-1.amazonaws.com/obj_det/678.jpg", "trial": 74, "page_name": "678_a_0.html/", "phase": "TEST", "response_gender": "NA", "response_speaker": "machine", "response_object": "2", "groundtruth": "human", "object_groundtruth": "1", "machine_groundtruth": ""}}, "Trial_Obj_69": {"workerID": "A36H3PO6JZD414", "workerData": {"country": "United States", "age": "51", "engagement": "9", "difficulty": "9", "mode": "live", "gender": "male", "education": "high school", "ai-experience": "1", "condition": 0, "native": "yes"}, "trialData": {"rt": 4785, "Aclass": "Human", "imageID": "https://xiaoturing.s3.us-east-1.amazonaws.com/obj_det/4491.jpg", "trial": 75, "page_name": "4491_e_0.html/", "phase": "TEST", "response_gender": "NA", "response_speaker": "human", "response_object": "2", "groundtruth": "machine", "object_groundtruth": "1", "machine_groundtruth": "Rekognition"}}, "Trial_Obj_70": {"workerID": "A36H3PO6JZD414", "workerData": {"country": "United States", "age": "51", "engagement": "9", "difficulty": "9", "mode": "live", "gender": "male", "education": "high school", "ai-experience": "1", "condition": 0, "native": "yes"}, "trialData": {"rt": 14280, "Aclass": "Machine", "imageID": "https://xiaoturing.s3.us-east-1.amazonaws.com/obj_det/461.jpg", "trial": 76, "page_name": "461_a_0.html/", "phase": "TEST", "response_gender": "NA", "response_speaker": "machine", "response_object": "2", "groundtruth": "human", "object_groundtruth": "0", "machine_groundtruth": ""}}, "Trial_Obj_71": {"workerID": "A36H3PO6JZD414", "workerData": {"country": "United States", "age": "51", "engagement": "9", "difficulty": "9", "mode": "live", "gender": "male", "education": "high school", "ai-experience": "1", "condition": 0, "native": "yes"}, "trialData": {"rt": 9623, "Aclass": "Machine", "imageID": "https://xiaoturing.s3.us-east-1.amazonaws.com/obj_det/1725.jpg", "trial": 77, "page_name": "1725_a_0.html/", "phase": "TEST", "response_gender": "NA", "response_speaker": "machine", "response_object": "1", "groundtruth": "human", "object_groundtruth": "0", "machine_groundtruth": ""}}, "Trial_Obj_72": {"workerID": "A36H3PO6JZD414", "workerData": {"country": "United States", "age": "51", "engagement": "9", "difficulty": "9", "mode": "live", "gender": "male", "education": "high school", "ai-experience": "1", "condition": 0, "native": "yes"}, "trialData": {"rt": 11340, "Aclass": "Machine", "imageID": "https://xiaoturing.s3.us-east-1.amazonaws.com/obj_det/292.jpg", "trial": 78, "page_name": "292_a_0.html/", "phase": "TEST", "response_gender": "NA", "response_speaker": "machine", "response_object": "1", "groundtruth": "human", "object_groundtruth": "0", "machine_groundtruth": ""}}, "Trial_Obj_73": {"workerID": "A36H3PO6JZD414", "workerData": {"country": "United States", "age": "51", "engagement": "9", "difficulty": "9", "mode": "live", "gender": "male", "education": "high school", "ai-experience": "1", "condition": 0, "native": "yes"}, "trialData": {"rt": 8558, "Aclass": "Human", "imageID": "https://xiaoturing.s3.us-east-1.amazonaws.com/obj_det/608.jpg", "trial": 80, "page_name": "608_a_0.html/", "phase": "TEST", "response_gender": "NA", "response_speaker": "human", "response_object": "1", "groundtruth": "human", "object_groundtruth": "0", "machine_groundtruth": ""}}, "Trial_Obj_74": {"workerID": "A36H3PO6JZD414", "workerData": {"country": "United States", "age": "51", "engagement": "9", "difficulty": "9", "mode": "live", "gender": "male", "education": "high school", "ai-experience": "1", "condition": 0, "native": "yes"}, "trialData": {"rt": 8339, "Aclass": "Human", "imageID": "https://xiaoturing.s3.us-east-1.amazonaws.com/obj_det/908.jpg", "trial": 82, "page_name": "908_a_0.html/", "phase": "TEST", "response_gender": "NA", "response_speaker": "human", "response_object": "2", "groundtruth": "human", "object_groundtruth": "1", "machine_groundtruth": ""}}, "Trial_Obj_75": {"workerID": "A36H3PO6JZD414", "workerData": {"country": "United States", "age": "51", "engagement": "9", "difficulty": "9", "mode": "live", "gender": "male", "education": "high school", "ai-experience": "1", "condition": 0, "native": "yes"}, "trialData": {"rt": 7848, "Aclass": "Human", "imageID": "https://xiaoturing.s3.us-east-1.amazonaws.com/obj_det/684.jpg", "trial": 83, "page_name": "684_b_0.html/", "phase": "TEST", "response_gender": "NA", "response_speaker": "human", "response_object": "1", "groundtruth": "machine", "object_groundtruth": "0", "machine_groundtruth": "Azure"}}, "Trial_Obj_76": {"workerID": "A36H3PO6JZD414", "workerData": {"country": "United States", "age": "51", "engagement": "9", "difficulty": "9", "mode": "live", "gender": "male", "education": "high school", "ai-experience": "1", "condition": 0, "native": "yes"}, "trialData": {"rt": 9257, "Aclass": "Machine", "imageID": "https://xiaoturing.s3.us-east-1.amazonaws.com/obj_det/121.jpg", "trial": 84, "page_name": "121_d_0.html/", "phase": "TEST", "response_gender": "NA", "response_speaker": "machine", "response_object": "2", "groundtruth": "machine", "object_groundtruth": "0", "machine_groundtruth": "Google"}}, "Trial_Obj_77": {"workerID": "A36H3PO6JZD414", "workerData": {"country": "United States", "age": "51", "engagement": "9", "difficulty": "9", "mode": "live", "gender": "male", "education": "high school", "ai-experience": "1", "condition": 0, "native": "yes"}, "trialData": {"rt": 9047, "Aclass": "Human", "imageID": "https://xiaoturing.s3.us-east-1.amazonaws.com/obj_det/3269.jpg", "trial": 86, "page_name": "3269_a_0.html/", "phase": "TEST", "response_gender": "NA", "response_speaker": "human", "response_object": "2", "groundtruth": "human", "object_groundtruth": "1", "machine_groundtruth": ""}}, "Trial_Obj_78": {"workerID": "A36H3PO6JZD414", "workerData": {"country": "United States", "age": "51", "engagement": "9", "difficulty": "9", "mode": "live", "gender": "male", "education": "high school", "ai-experience": "1", "condition": 0, "native": "yes"}, "trialData": {"rt": 10279, "Aclass": "Machine", "imageID": "https://xiaoturing.s3.us-east-1.amazonaws.com/obj_det/427.jpg", "trial": 87, "page_name": "427_d_0.html/", "phase": "TEST", "response_gender": "NA", "response_speaker": "machine", "response_object": "2", "groundtruth": "machine", "object_groundtruth": "1", "machine_groundtruth": "Google"}}, "Trial_Obj_79": {"workerID": "A36H3PO6JZD414", "workerData": {"country": "United States", "age": "51", "engagement": "9", "difficulty": "9", "mode": "live", "gender": "male", "education": "high school", "ai-experience": "1", "condition": 0, "native": "yes"}, "trialData": {"rt": 5407, "Aclass": "Human", "imageID": "https://xiaoturing.s3.us-east-1.amazonaws.com/obj_det/409.jpg", "trial": 88, "page_name": "409_a_0.html/", "phase": "TEST", "response_gender": "NA", "response_speaker": "human", "response_object": "2", "groundtruth": "human", "object_groundtruth": "1", "machine_groundtruth": ""}}, "Trial_Obj_80": {"workerID": "A36H3PO6JZD414", "workerData": {"country": "United States", "age": "51", "engagement": "9", "difficulty": "9", "mode": "live", "gender": "male", "education": "high school", "ai-experience": "1", "condition": 0, "native": "yes"}, "trialData": {"rt": 6054, "Aclass": "Human", "imageID": "https://xiaoturing.s3.us-east-1.amazonaws.com/obj_det/267.jpg", "trial": 90, "page_name": "267_a_0.html/", "phase": "TEST", "response_gender": "NA", "response_speaker": "human", "response_object": "2", "groundtruth": "human", "object_groundtruth": "1", "machine_groundtruth": ""}}, "Trial_Obj_81": {"workerID": "A31Z5TPD8QKE26", "workerData": {"country": "United States", "age": "36-40", "engagement": "9", "difficulty": "8", "mode": "live", "gender": "male", "education": "bachelor", "ai-experience": "1", "condition": 0, "native": "yes"}, "trialData": {"rt": 5119, "Aclass": "Machine", "hit": "575", "imageID": "https://xiaoturing.s3.us-east-1.amazonaws.com/obj_det/3003.jpg", "trial": 41, "page_name": "3003_b_0.html/", "phase": "TEST", "response_gender": "NA", "response_speaker": "machine", "response_object": "1", "groundtruth": "machine", "object_groundtruth": "0", "machine_groundtruth": "Azure"}}, "Trial_Obj_82": {"workerID": "A31Z5TPD8QKE26", "workerData": {"country": "United States", "age": "36-40", "engagement": "9", "difficulty": "8", "mode": "live", "gender": "male", "education": "bachelor", "ai-experience": "1", "condition": 0, "native": "yes"}, "trialData": {"rt": 5991, "Aclass": "Machine", "hit": "907", "imageID": "https://xiaoturing.s3.us-east-1.amazonaws.com/obj_det/30.jpg", "trial": 43, "page_name": "30_b_0.html/", "phase": "TEST", "response_gender": "NA", "response_speaker": "machine", "response_object": "1", "groundtruth": "machine", "object_groundtruth": "0", "machine_groundtruth": "Azure"}}, "Trial_Obj_83": {"workerID": "A31Z5TPD8QKE26", "workerData": {"country": "United States", "age": "36-40", "engagement": "9", "difficulty": "8", "mode": "live", "gender": "male", "education": "bachelor", "ai-experience": "1", "condition": 0, "native": "yes"}, "trialData": {"rt": 7568, "Aclass": "Machine", "hit": "758", "imageID": "https://xiaoturing.s3.us-east-1.amazonaws.com/obj_det/91.jpg", "trial": 44, "page_name": "91_a_0.html/", "phase": "TEST", "response_gender": "NA", "response_speaker": "machine", "response_object": "2", "groundtruth": "human", "object_groundtruth": "1", "machine_groundtruth": ""}}, "Trial_Obj_84": {"workerID": "A31Z5TPD8QKE26", "workerData": {"country": "United States", "age": "36-40", "engagement": "9", "difficulty": "8", "mode": "live", "gender": "male", "education": "bachelor", "ai-experience": "1", "condition": 0, "native": "yes"}, "trialData": {"rt": 5559, "Aclass": "Machine", "hit": "599", "imageID": "https://xiaoturing.s3.us-east-1.amazonaws.com/obj_det/819.jpg", "trial": 45, "page_name": "819_e_0.html/", "phase": "TEST", "response_gender": "NA", "response_speaker": "machine", "response_object": "2", "groundtruth": "machine", "object_groundtruth": "1", "machine_groundtruth": "Rekognition"}}, "Trial_Obj_85": {"workerID": "A31Z5TPD8QKE26", "workerData": {"country": "United States", "age": "36-40", "engagement": "9", "difficulty": "8", "mode": "live", "gender": "male", "education": "bachelor", "ai-experience": "1", "condition": 0, "native": "yes"}, "trialData": {"rt": 6695, "Aclass": "Machine", "imageID": "https://xiaoturing.s3.us-east-1.amazonaws.com/obj_det/203.jpg", "trial": 46, "page_name": "203_c_0.html/", "phase": "TEST", "response_gender": "NA", "response_speaker": "machine", "response_object": "1", "groundtruth": "machine", "object_groundtruth": "0", "machine_groundtruth": "Detectron"}}, "Trial_Obj_86": {"workerID": "A31Z5TPD8QKE26", "workerData": {"country": "United States", "age": "36-40", "engagement": "9", "difficulty": "8", "mode": "live", "gender": "male", "education": "bachelor", "ai-experience": "1", "condition": 0, "native": "yes"}, "trialData": {"rt": 13655, "Aclass": "Machine", "imageID": "https://xiaoturing.s3.us-east-1.amazonaws.com/obj_det/811.jpg", "trial": 47, "page_name": "811_c_0.html/", "phase": "TEST", "response_gender": "NA", "response_speaker": "machine", "response_object": "1", "groundtruth": "machine", "object_groundtruth": "0", "machine_groundtruth": "Detectron"}}, "Trial_Obj_87": {"workerID": "A31Z5TPD8QKE26", "workerData": {"country": "United States", "age": "36-40", "engagement": "9", "difficulty": "8", "mode": "live", "gender": "male", "education": "bachelor", "ai-experience": "1", "condition": 0, "native": "yes"}, "trialData": {"rt": 6096, "Aclass": "Human", "imageID": "https://xiaoturing.s3.us-east-1.amazonaws.com/obj_det/255.jpg", "trial": 48, "page_name": "255_a_0.html/", "phase": "TEST", "response_gender": "NA", "response_speaker": "human", "response_object": "1", "groundtruth": "human", "object_groundtruth": "0", "machine_groundtruth": ""}}, "Trial_Obj_88": {"workerID": "A31Z5TPD8QKE26", "workerData": {"country": "United States", "age": "36-40", "engagement": "9", "difficulty": "8", "mode": "live", "gender": "male", "education": "bachelor", "ai-experience": "1", "condition": 0, "native": "yes"}, "trialData": {"rt": 7303, "Aclass": "Machine", "imageID": "https://xiaoturing.s3.us-east-1.amazonaws.com/obj_det/2138.jpg", "trial": 49, "page_name": "2138_d_0.html/", "phase": "TEST", "response_gender": "NA", "response_speaker": "machine", "response_object": "1", "groundtruth": "machine", "object_groundtruth": "0", "machine_groundtruth": "Google"}}, "Trial_Obj_89": {"workerID": "A31Z5TPD8QKE26", "workerData": {"country": "United States", "age": "36-40", "engagement": "9", "difficulty": "8", "mode": "live", "gender": "male", "education": "bachelor", "ai-experience": "1", "condition": 0, "native": "yes"}, "trialData": {"rt": 6848, "Aclass": "Machine", "imageID": "https://xiaoturing.s3.us-east-1.amazonaws.com/obj_det/4581.jpg", "trial": 50, "page_name": "4581_e_0.html/", "phase": "TEST", "response_gender": "NA", "response_speaker": "machine", "response_object": "2", "groundtruth": "machine", "object_groundtruth": "1", "machine_groundtruth": "Rekognition"}}, "Trial_Obj_90": {"workerID": "A31Z5TPD8QKE26", "workerData": {"country": "United States", "age": "36-40", "engagement": "9", "difficulty": "8", "mode": "live", "gender": "male", "education": "bachelor", "ai-experience": "1", "condition": 0, "native": "yes"}, "trialData": {"rt": 4383, "Aclass": "Machine", "imageID": "https://xiaoturing.s3.us-east-1.amazonaws.com/obj_det/4395.jpg", "trial": 51, "page_name": "4395_b_0.html/", "phase": "TEST", "response_gender": "NA", "response_speaker": "machine", "response_object": "1", "groundtruth": "machine", "object_groundtruth": "0", "machine_groundtruth": "Azure"}}, "Trial_Obj_91": {"workerID": "A31Z5TPD8QKE26", "workerData": {"country": "United States", "age": "36-40", "engagement": "9", "difficulty": "8", "mode": "live", "gender": "male", "education": "bachelor", "ai-experience": "1", "condition": 0, "native": "yes"}, "trialData": {"rt": 4416, "Aclass": "Machine", "imageID": "https://xiaoturing.s3.us-east-1.amazonaws.com/obj_det/173.jpg", "trial": 52, "page_name": "173_e_0.html/", "phase": "TEST", "response_gender": "NA", "response_speaker": "machine", "response_object": "2", "groundtruth": "machine", "object_groundtruth": "1", "machine_groundtruth": "Rekognition"}}, "Trial_Obj_92": {"workerID": "A31Z5TPD8QKE26", "workerData": {"country": "United States", "age": "36-40", "engagement": "9", "difficulty": "8", "mode": "live", "gender": "male", "education": "bachelor", "ai-experience": "1", "condition": 0, "native": "yes"}, "trialData": {"rt": 7735, "Aclass": "Machine", "imageID": "https://xiaoturing.s3.us-east-1.amazonaws.com/obj_det/803.jpg", "trial": 54, "page_name": "803_b_0.html/", "phase": "TEST", "response_gender": "NA", "response_speaker": "machine", "response_object": "1", "groundtruth": "machine", "object_groundtruth": "0", "machine_groundtruth": "Azure"}}, "Trial_Obj_93": {"workerID": "A31Z5TPD8QKE26", "workerData": {"country": "United States", "age": "36-40", "engagement": "9", "difficulty": "8", "mode": "live", "gender": "male", "education": "bachelor", "ai-experience": "1", "condition": 0, "native": "yes"}, "trialData": {"rt": 17631, "Aclass": "Machine", "imageID": "https://xiaoturing.s3.us-east-1.amazonaws.com/obj_det/549.jpg", "trial": 58, "page_name": "549_a_0.html/", "phase": "TEST", "response_gender": "NA", "response_speaker": "machine", "response_object": "1", "groundtruth": "human", "object_groundtruth": "0", "machine_groundtruth": ""}}, "Trial_Obj_94": {"workerID": "A31Z5TPD8QKE26", "workerData": {"country": "United States", "age": "36-40", "engagement": "9", "difficulty": "8", "mode": "live", "gender": "male", "education": "bachelor", "ai-experience": "1", "condition": 0, "native": "yes"}, "trialData": {"rt": 7575, "Aclass": "Machine", "imageID": "https://xiaoturing.s3.us-east-1.amazonaws.com/obj_det/509.jpg", "trial": 59, "page_name": "509_e_0.html/", "phase": "TEST", "response_gender": "NA", "response_speaker": "machine", "response_object": "1", "groundtruth": "machine", "object_groundtruth": "0", "machine_groundtruth": "Rekognition"}}, "Trial_Obj_95": {"workerID": "A31Z5TPD8QKE26", "workerData": {"country": "United States", "age": "36-40", "engagement": "9", "difficulty": "8", "mode": "live", "gender": "male", "education": "bachelor", "ai-experience": "1", "condition": 0, "native": "yes"}, "trialData": {"rt": 4655, "Aclass": "Machine", "imageID": "https://xiaoturing.s3.us-east-1.amazonaws.com/obj_det/419.jpg", "trial": 60, "page_name": "419_b_0.html/", "phase": "TEST", "response_gender": "NA", "response_speaker": "machine", "response_object": "2", "groundtruth": "machine", "object_groundtruth": "1", "machine_groundtruth": "Azure"}}, "Trial_Obj_96": {"workerID": "A31Z5TPD8QKE26", "workerData": {"country": "United States", "age": "36-40", "engagement": "9", "difficulty": "8", "mode": "live", "gender": "male", "education": "bachelor", "ai-experience": "1", "condition": 0, "native": "yes"}, "trialData": {"rt": 5408, "Aclass": "Human", "imageID": "https://xiaoturing.s3.us-east-1.amazonaws.com/obj_det/480.jpg", "trial": 61, "page_name": "480_a_0.html/", "phase": "TEST", "response_gender": "NA", "response_speaker": "human", "response_object": "2", "groundtruth": "human", "object_groundtruth": "1", "machine_groundtruth": ""}}, "Trial_Obj_97": {"workerID": "A31Z5TPD8QKE26", "workerData": {"country": "United States", "age": "36-40", "engagement": "9", "difficulty": "8", "mode": "live", "gender": "male", "education": "bachelor", "ai-experience": "1", "condition": 0, "native": "yes"}, "trialData": {"rt": 6255, "Aclass": "Machine", "imageID": "https://xiaoturing.s3.us-east-1.amazonaws.com/obj_det/1931.jpg", "trial": 62, "page_name": "1931_a_0.html/", "phase": "TEST", "response_gender": "NA", "response_speaker": "machine", "response_object": "2", "groundtruth": "human", "object_groundtruth": "1", "machine_groundtruth": ""}}, "Trial_Obj_98": {"workerID": "A31Z5TPD8QKE26", "workerData": {"country": "United States", "age": "36-40", "engagement": "9", "difficulty": "8", "mode": "live", "gender": "male", "education": "bachelor", "ai-experience": "1", "condition": 0, "native": "yes"}, "trialData": {"rt": 6079, "Aclass": "Machine", "imageID": "https://xiaoturing.s3.us-east-1.amazonaws.com/obj_det/70.jpg", "trial": 64, "page_name": "70_a_0.html/", "phase": "TEST", "response_gender": "NA", "response_speaker": "machine", "response_object": "2", "groundtruth": "human", "object_groundtruth": "1", "machine_groundtruth": ""}}, "Trial_Obj_99": {"workerID": "A31Z5TPD8QKE26", "workerData": {"country": "United States", "age": "36-40", "engagement": "9", "difficulty": "8", "mode": "live", "gender": "male", "education": "bachelor", "ai-experience": "1", "condition": 0, "native": "yes"}, "trialData": {"rt": 6271, "Aclass": "Human", "imageID": "https://xiaoturing.s3.us-east-1.amazonaws.com/obj_det/529.jpg", "trial": 66, "page_name": "529_d_0.html/", "phase": "TEST", "response_gender": "NA", "response_speaker": "human", "response_object": "2", "groundtruth": "machine", "object_groundtruth": "1", "machine_groundtruth": "Google"}}, "Trial_Obj_100": {"workerID": "A31Z5TPD8QKE26", "workerData": {"country": "United States", "age": "36-40", "engagement": "9", "difficulty": "8", "mode": "live", "gender": "male", "education": "bachelor", "ai-experience": "1", "condition": 0, "native": "yes"}, "trialData": {"rt": 4695, "Aclass": "Human", "imageID": "https://xiaoturing.s3.us-east-1.amazonaws.com/obj_det/994.jpg", "trial": 67, "page_name": "994_a_0.html/", "phase": "TEST", "response_gender": "NA", "response_speaker": "human", "response_object": "1", "groundtruth": "human", "object_groundtruth": "0", "machine_groundtruth": ""}}, "Trial_Obj_101": {"workerID": "A31Z5TPD8QKE26", "workerData": {"country": "United States", "age": "36-40", "engagement": "9", "difficulty": "8", "mode": "live", "gender": "male", "education": "bachelor", "ai-experience": "1", "condition": 0, "native": "yes"}, "trialData": {"rt": 4535, "Aclass": "Human", "imageID": "https://xiaoturing.s3.us-east-1.amazonaws.com/obj_det/75.jpg", "trial": 69, "page_name": "75_a_0.html/", "phase": "TEST", "response_gender": "NA", "response_speaker": "human", "response_object": "1", "groundtruth": "human", "object_groundtruth": "0", "machine_groundtruth": ""}}, "Trial_Obj_102": {"workerID": "A31Z5TPD8QKE26", "workerData": {"country": "United States", "age": "36-40", "engagement": "9", "difficulty": "8", "mode": "live", "gender": "male", "education": "bachelor", "ai-experience": "1", "condition": 0, "native": "yes"}, "trialData": {"rt": 7607, "Aclass": "Machine", "imageID": "https://xiaoturing.s3.us-east-1.amazonaws.com/obj_det/2127.jpg", "trial": 70, "page_name": "2127_a_0.html/", "phase": "TEST", "response_gender": "NA", "response_speaker": "machine", "response_object": "1", "groundtruth": "human", "object_groundtruth": "1", "machine_groundtruth": ""}}, "Trial_Obj_103": {"workerID": "A31Z5TPD8QKE26", "workerData": {"country": "United States", "age": "36-40", "engagement": "9", "difficulty": "8", "mode": "live", "gender": "male", "education": "bachelor", "ai-experience": "1", "condition": 0, "native": "yes"}, "trialData": {"rt": 6599, "Aclass": "Machine", "imageID": "https://xiaoturing.s3.us-east-1.amazonaws.com/obj_det/360.jpg", "trial": 71, "page_name": "360_d_0.html/", "phase": "TEST", "response_gender": "NA", "response_speaker": "machine", "response_object": "1", "groundtruth": "machine", "object_groundtruth": "0", "machine_groundtruth": "Google"}}, "Trial_Obj_104": {"workerID": "A31Z5TPD8QKE26", "workerData": {"country": "United States", "age": "36-40", "engagement": "9", "difficulty": "8", "mode": "live", "gender": "male", "education": "bachelor", "ai-experience": "1", "condition": 0, "native": "yes"}, "trialData": {"rt": 4751, "Aclass": "Machine", "imageID": "https://xiaoturing.s3.us-east-1.amazonaws.com/obj_det/3716.jpg", "trial": 72, "page_name": "3716_d_0.html/", "phase": "TEST", "response_gender": "NA", "response_speaker": "machine", "response_object": "2", "groundtruth": "machine", "object_groundtruth": "1", "machine_groundtruth": "Google"}}, "Trial_Obj_105": {"workerID": "A31Z5TPD8QKE26", "workerData": {"country": "United States", "age": "36-40", "engagement": "9", "difficulty": "8", "mode": "live", "gender": "male", "education": "bachelor", "ai-experience": "1", "condition": 0, "native": "yes"}, "trialData": {"rt": 5768, "Aclass": "Machine", "imageID": "https://xiaoturing.s3.us-east-1.amazonaws.com/obj_det/186.jpg", "trial": 73, "page_name": "186_a_0.html/", "phase": "TEST", "response_gender": "NA", "response_speaker": "machine", "response_object": "2", "groundtruth": "human", "object_groundtruth": "1", "machine_groundtruth": ""}}, "Trial_Obj_106": {"workerID": "A31Z5TPD8QKE26", "workerData": {"country": "United States", "age": "36-40", "engagement": "9", "difficulty": "8", "mode": "live", "gender": "male", "education": "bachelor", "ai-experience": "1", "condition": 0, "native": "yes"}, "trialData": {"rt": 5007, "Aclass": "Machine", "imageID": "https://xiaoturing.s3.us-east-1.amazonaws.com/obj_det/311.jpg", "trial": 74, "page_name": "311_e_0.html/", "phase": "TEST", "response_gender": "NA", "response_speaker": "machine", "response_object": "1", "groundtruth": "machine", "object_groundtruth": "0", "machine_groundtruth": "Rekognition"}}, "Trial_Obj_107": {"workerID": "A31Z5TPD8QKE26", "workerData": {"country": "United States", "age": "36-40", "engagement": "9", "difficulty": "8", "mode": "live", "gender": "male", "education": "bachelor", "ai-experience": "1", "condition": 0, "native": "yes"}, "trialData": {"rt": 4864, "Aclass": "Machine", "imageID": "https://xiaoturing.s3.us-east-1.amazonaws.com/obj_det/594.jpg", "trial": 75, "page_name": "594_a_0.html/", "phase": "TEST", "response_gender": "NA", "response_speaker": "machine", "response_object": "2", "groundtruth": "human", "object_groundtruth": "1", "machine_groundtruth": ""}}, "Trial_Obj_108": {"workerID": "A31Z5TPD8QKE26", "workerData": {"country": "United States", "age": "36-40", "engagement": "9", "difficulty": "8", "mode": "live", "gender": "male", "education": "bachelor", "ai-experience": "1", "condition": 0, "native": "yes"}, "trialData": {"rt": 7335, "Aclass": "Human", "imageID": "https://xiaoturing.s3.us-east-1.amazonaws.com/obj_det/280.jpg", "trial": 76, "page_name": "280_a_0.html/", "phase": "TEST", "response_gender": "NA", "response_speaker": "human", "response_object": "2", "groundtruth": "human", "object_groundtruth": "1", "machine_groundtruth": ""}}, "Trial_Obj_109": {"workerID": "A31Z5TPD8QKE26", "workerData": {"country": "United States", "age": "36-40", "engagement": "9", "difficulty": "8", "mode": "live", "gender": "male", "education": "bachelor", "ai-experience": "1", "condition": 0, "native": "yes"}, "trialData": {"rt": 7264, "Aclass": "Human", "imageID": "https://xiaoturing.s3.us-east-1.amazonaws.com/obj_det/3248.jpg", "trial": 77, "page_name": "3248_a_0.html/", "phase": "TEST", "response_gender": "NA", "response_speaker": "human", "response_object": "2", "groundtruth": "human", "object_groundtruth": "1", "machine_groundtruth": ""}}, "Trial_Obj_110": {"workerID": "A31Z5TPD8QKE26", "workerData": {"country": "United States", "age": "36-40", "engagement": "9", "difficulty": "8", "mode": "live", "gender": "male", "education": "bachelor", "ai-experience": "1", "condition": 0, "native": "yes"}, "trialData": {"rt": 4767, "Aclass": "Human", "imageID": "https://xiaoturing.s3.us-east-1.amazonaws.com/obj_det/998.jpg", "trial": 78, "page_name": "998_a_0.html/", "phase": "TEST", "response_gender": "NA", "response_speaker": "human", "response_object": "2", "groundtruth": "human", "object_groundtruth": "1", "machine_groundtruth": ""}}, "Trial_Obj_111": {"workerID": "A31Z5TPD8QKE26", "workerData": {"country": "United States", "age": "36-40", "engagement": "9", "difficulty": "8", "mode": "live", "gender": "male", "education": "bachelor", "ai-experience": "1", "condition": 0, "native": "yes"}, "trialData": {"rt": 9848, "Aclass": "Machine", "imageID": "https://xiaoturing.s3.us-east-1.amazonaws.com/obj_det/622.jpg", "trial": 80, "page_name": "622_d_0.html/", "phase": "TEST", "response_gender": "NA", "response_speaker": "machine", "response_object": "1", "groundtruth": "machine", "object_groundtruth": "1", "machine_groundtruth": "Google"}}, "Trial_Obj_112": {"workerID": "A31Z5TPD8QKE26", "workerData": {"country": "United States", "age": "36-40", "engagement": "9", "difficulty": "8", "mode": "live", "gender": "male", "education": "bachelor", "ai-experience": "1", "condition": 0, "native": "yes"}, "trialData": {"rt": 11216, "Aclass": "Human", "imageID": "https://xiaoturing.s3.us-east-1.amazonaws.com/obj_det/575.jpg", "trial": 82, "page_name": "575_c_0.html/", "phase": "TEST", "response_gender": "NA", "response_speaker": "human", "response_object": "2", "groundtruth": "machine", "object_groundtruth": "1", "machine_groundtruth": "Detectron"}}, "Trial_Obj_113": {"workerID": "A31Z5TPD8QKE26", "workerData": {"country": "United States", "age": "36-40", "engagement": "9", "difficulty": "8", "mode": "live", "gender": "male", "education": "bachelor", "ai-experience": "1", "condition": 0, "native": "yes"}, "trialData": {"rt": 4752, "Aclass": "Human", "imageID": "https://xiaoturing.s3.us-east-1.amazonaws.com/obj_det/909.jpg", "trial": 83, "page_name": "909_a_0.html/", "phase": "TEST", "response_gender": "NA", "response_speaker": "human", "response_object": "1", "groundtruth": "human", "object_groundtruth": "0", "machine_groundtruth": ""}}, "Trial_Obj_114": {"workerID": "A31Z5TPD8QKE26", "workerData": {"country": "United States", "age": "36-40", "engagement": "9", "difficulty": "8", "mode": "live", "gender": "male", "education": "bachelor", "ai-experience": "1", "condition": 0, "native": "yes"}, "trialData": {"rt": 5431, "Aclass": "Human", "imageID": "https://xiaoturing.s3.us-east-1.amazonaws.com/obj_det/612.jpg", "trial": 84, "page_name": "612_a_0.html/", "phase": "TEST", "response_gender": "NA", "response_speaker": "human", "response_object": "2", "groundtruth": "human", "object_groundtruth": "1", "machine_groundtruth": ""}}, "Trial_Obj_115": {"workerID": "A31Z5TPD8QKE26", "workerData": {"country": "United States", "age": "36-40", "engagement": "9", "difficulty": "8", "mode": "live", "gender": "male", "education": "bachelor", "ai-experience": "1", "condition": 0, "native": "yes"}, "trialData": {"rt": 5183, "Aclass": "Human", "imageID": "https://xiaoturing.s3.us-east-1.amazonaws.com/obj_det/4871.jpg", "trial": 85, "page_name": "4871_a_0.html/", "phase": "TEST", "response_gender": "NA", "response_speaker": "human", "response_object": "2", "groundtruth": "human", "object_groundtruth": "1", "machine_groundtruth": ""}}, "Trial_Obj_116": {"workerID": "A31Z5TPD8QKE26", "workerData": {"country": "United States", "age": "36-40", "engagement": "9", "difficulty": "8", "mode": "live", "gender": "male", "education": "bachelor", "ai-experience": "1", "condition": 0, "native": "yes"}, "trialData": {"rt": 3671, "Aclass": "Human", "imageID": "https://xiaoturing.s3.us-east-1.amazonaws.com/obj_det/907.jpg", "trial": 86, "page_name": "907_a_0.html/", "phase": "TEST", "response_gender": "NA", "response_speaker": "human", "response_object": "2", "groundtruth": "human", "object_groundtruth": "1", "machine_groundtruth": ""}}, "Trial_Obj_117": {"workerID": "A31Z5TPD8QKE26", "workerData": {"country": "United States", "age": "36-40", "engagement": "9", "difficulty": "8", "mode": "live", "gender": "male", "education": "bachelor", "ai-experience": "1", "condition": 0, "native": "yes"}, "trialData": {"rt": 9999, "Aclass": "Human", "imageID": "https://xiaoturing.s3.us-east-1.amazonaws.com/obj_det/4704.jpg", "trial": 87, "page_name": "4704_a_0.html/", "phase": "TEST", "response_gender": "NA", "response_speaker": "human", "response_object": "1", "groundtruth": "human", "object_groundtruth": "1", "machine_groundtruth": ""}}, "Trial_Obj_118": {"workerID": "A31Z5TPD8QKE26", "workerData": {"country": "United States", "age": "36-40", "engagement": "9", "difficulty": "8", "mode": "live", "gender": "male", "education": "bachelor", "ai-experience": "1", "condition": 0, "native": "yes"}, "trialData": {"rt": 9119, "Aclass": "Human", "imageID": "https://xiaoturing.s3.us-east-1.amazonaws.com/obj_det/758.jpg", "trial": 88, "page_name": "758_c_0.html/", "phase": "TEST", "response_gender": "NA", "response_speaker": "human", "response_object": "1", "groundtruth": "machine", "object_groundtruth": "0", "machine_groundtruth": "Detectron"}}, "Trial_Obj_119": {"workerID": "A31Z5TPD8QKE26", "workerData": {"country": "United States", "age": "36-40", "engagement": "9", "difficulty": "8", "mode": "live", "gender": "male", "education": "bachelor", "ai-experience": "1", "condition": 0, "native": "yes"}, "trialData": {"rt": 6984, "Aclass": "Machine", "imageID": "https://xiaoturing.s3.us-east-1.amazonaws.com/obj_det/296.jpg", "trial": 89, "page_name": "296_c_0.html/", "phase": "TEST", "response_gender": "NA", "response_speaker": "machine", "response_object": "2", "groundtruth": "machine", "object_groundtruth": "1", "machine_groundtruth": "Detectron"}}, "Trial_Obj_120": {"workerID": "A31Z5TPD8QKE26", "workerData": {"country": "United States", "age": "36-40", "engagement": "9", "difficulty": "8", "mode": "live", "gender": "male", "education": "bachelor", "ai-experience": "1", "condition": 0, "native": "yes"}, "trialData": {"rt": 7615, "Aclass": "Human", "imageID": "https://xiaoturing.s3.us-east-1.amazonaws.com/obj_det/599.jpg", "trial": 90, "page_name": "599_a_0.html/", "phase": "TEST", "response_gender": "NA", "response_speaker": "human", "response_object": "1", "groundtruth": "human", "object_groundtruth": "0", "machine_groundtruth": ""}}, "Trial_Obj_121": {"workerID": "A1FVXS8IM5QYO8", "workerData": {"country": "United States", "age": "51", "engagement": "10", "difficulty": "6", "mode": "live", "gender": "female", "education": "high school", "ai-experience": "1", "condition": 0, "native": "yes"}, "trialData": {"rt": 10076, "Aclass": "Machine", "hit": "305", "imageID": "https://xiaoturing.s3.us-east-1.amazonaws.com/obj_det/1815.jpg", "trial": 41, "page_name": "1815_a_0.html/", "phase": "TEST", "response_gender": "NA", "response_speaker": "machine", "response_object": "1", "groundtruth": "human", "object_groundtruth": "0", "machine_groundtruth": ""}}, "Trial_Obj_122": {"workerID": "A1FVXS8IM5QYO8", "workerData": {"country": "United States", "age": "51", "engagement": "10", "difficulty": "6", "mode": "live", "gender": "female", "education": "high school", "ai-experience": "1", "condition": 0, "native": "yes"}, "trialData": {"rt": 7371, "Aclass": "Machine", "hit": "1883", "imageID": "https://xiaoturing.s3.us-east-1.amazonaws.com/obj_det/749.jpg", "trial": 42, "page_name": "749_d_0.html/", "phase": "TEST", "response_gender": "NA", "response_speaker": "machine", "response_object": "1", "groundtruth": "machine", "object_groundtruth": "0", "machine_groundtruth": "Google"}}, "Trial_Obj_123": {"workerID": "A1FVXS8IM5QYO8", "workerData": {"country": "United States", "age": "51", "engagement": "10", "difficulty": "6", "mode": "live", "gender": "female", "education": "high school", "ai-experience": "1", "condition": 0, "native": "yes"}, "trialData": {"rt": 5390, "Aclass": "Machine", "imageID": "https://xiaoturing.s3.us-east-1.amazonaws.com/obj_det/762.jpg", "trial": 46, "page_name": "762_a_0.html/", "phase": "TEST", "response_gender": "NA", "response_speaker": "machine", "response_object": "2", "groundtruth": "human", "object_groundtruth": "1", "machine_groundtruth": ""}}, "Trial_Obj_124": {"workerID": "A1FVXS8IM5QYO8", "workerData": {"country": "United States", "age": "51", "engagement": "10", "difficulty": "6", "mode": "live", "gender": "female", "education": "high school", "ai-experience": "1", "condition": 0, "native": "yes"}, "trialData": {"rt": 10521, "Aclass": "Machine", "imageID": "https://xiaoturing.s3.us-east-1.amazonaws.com/obj_det/383.jpg", "trial": 47, "page_name": "383_c_0.html/", "phase": "TEST", "response_gender": "NA", "response_speaker": "machine", "response_object": "2", "groundtruth": "machine", "object_groundtruth": "1", "machine_groundtruth": "Detectron"}}, "Trial_Obj_125": {"workerID": "A1FVXS8IM5QYO8", "workerData": {"country": "United States", "age": "51", "engagement": "10", "difficulty": "6", "mode": "live", "gender": "female", "education": "high school", "ai-experience": "1", "condition": 0, "native": "yes"}, "trialData": {"rt": 10908, "Aclass": "Human", "imageID": "https://xiaoturing.s3.us-east-1.amazonaws.com/obj_det/532.jpg", "trial": 48, "page_name": "532_a_0.html/", "phase": "TEST", "response_gender": "NA", "response_speaker": "human", "response_object": "2", "groundtruth": "human", "object_groundtruth": "1", "machine_groundtruth": ""}}, "Trial_Obj_126": {"workerID": "A1FVXS8IM5QYO8", "workerData": {"country": "United States", "age": "51", "engagement": "10", "difficulty": "6", "mode": "live", "gender": "female", "education": "high school", "ai-experience": "1", "condition": 0, "native": "yes"}, "trialData": {"rt": 6656, "Aclass": "Machine", "imageID": "https://xiaoturing.s3.us-east-1.amazonaws.com/obj_det/996.jpg", "trial": 50, "page_name": "996_b_0.html/", "phase": "TEST", "response_gender": "NA", "response_speaker": "machine", "response_object": "2", "groundtruth": "machine", "object_groundtruth": "1", "machine_groundtruth": "Azure"}}, "Trial_Obj_127": {"workerID": "A1FVXS8IM5QYO8", "workerData": {"country": "United States", "age": "51", "engagement": "10", "difficulty": "6", "mode": "live", "gender": "female", "education": "high school", "ai-experience": "1", "condition": 0, "native": "yes"}, "trialData": {"rt": 7396, "Aclass": "Machine", "imageID": "https://xiaoturing.s3.us-east-1.amazonaws.com/obj_det/351.jpg", "trial": 51, "page_name": "351_b_0.html/", "phase": "TEST", "response_gender": "NA", "response_speaker": "machine", "response_object": "2", "groundtruth": "machine", "object_groundtruth": "1", "machine_groundtruth": "Azure"}}, "Trial_Obj_128": {"workerID": "A1FVXS8IM5QYO8", "workerData": {"country": "United States", "age": "51", "engagement": "10", "difficulty": "6", "mode": "live", "gender": "female", "education": "high school", "ai-experience": "1", "condition": 0, "native": "yes"}, "trialData": {"rt": 6294, "Aclass": "Human", "imageID": "https://xiaoturing.s3.us-east-1.amazonaws.com/obj_det/887.jpg", "trial": 52, "page_name": "887_a_0.html/", "phase": "TEST", "response_gender": "NA", "response_speaker": "human", "response_object": "1", "groundtruth": "human", "object_groundtruth": "0", "machine_groundtruth": ""}}, "Trial_Obj_129": {"workerID": "A1FVXS8IM5QYO8", "workerData": {"country": "United States", "age": "51", "engagement": "10", "difficulty": "6", "mode": "live", "gender": "female", "education": "high school", "ai-experience": "1", "condition": 0, "native": "yes"}, "trialData": {"rt": 7962, "Aclass": "Machine", "imageID": "https://xiaoturing.s3.us-east-1.amazonaws.com/obj_det/4127.jpg", "trial": 53, "page_name": "4127_d_0.html/", "phase": "TEST", "response_gender": "NA", "response_speaker": "machine", "response_object": "1", "groundtruth": "machine", "object_groundtruth": "0", "machine_groundtruth": "Google"}}, "Trial_Obj_130": {"workerID": "A1FVXS8IM5QYO8", "workerData": {"country": "United States", "age": "51", "engagement": "10", "difficulty": "6", "mode": "live", "gender": "female", "education": "high school", "ai-experience": "1", "condition": 0, "native": "yes"}, "trialData": {"rt": 8267, "Aclass": "Machine", "imageID": "https://xiaoturing.s3.us-east-1.amazonaws.com/obj_det/414.jpg", "trial": 54, "page_name": "414_c_0.html/", "phase": "TEST", "response_gender": "NA", "response_speaker": "machine", "response_object": "1", "groundtruth": "machine", "object_groundtruth": "1", "machine_groundtruth": "Detectron"}}, "Trial_Obj_131": {"workerID": "A1FVXS8IM5QYO8", "workerData": {"country": "United States", "age": "51", "engagement": "10", "difficulty": "6", "mode": "live", "gender": "female", "education": "high school", "ai-experience": "1", "condition": 0, "native": "yes"}, "trialData": {"rt": 9393, "Aclass": "Human", "imageID": "https://xiaoturing.s3.us-east-1.amazonaws.com/obj_det/227.jpg", "trial": 55, "page_name": "227_a_0.html/", "phase": "TEST", "response_gender": "NA", "response_speaker": "human", "response_object": "1", "groundtruth": "human", "object_groundtruth": "0", "machine_groundtruth": ""}}, "Trial_Obj_132": {"workerID": "A1FVXS8IM5QYO8", "workerData": {"country": "United States", "age": "51", "engagement": "10", "difficulty": "6", "mode": "live", "gender": "female", "education": "high school", "ai-experience": "1", "condition": 0, "native": "yes"}, "trialData": {"rt": 7826, "Aclass": "Machine", "imageID": "https://xiaoturing.s3.us-east-1.amazonaws.com/obj_det/579.jpg", "trial": 56, "page_name": "579_e_0.html/", "phase": "TEST", "response_gender": "NA", "response_speaker": "machine", "response_object": "2", "groundtruth": "machine", "object_groundtruth": "1", "machine_groundtruth": "Rekognition"}}, "Trial_Obj_133": {"workerID": "A1FVXS8IM5QYO8", "workerData": {"country": "United States", "age": "51", "engagement": "10", "difficulty": "6", "mode": "live", "gender": "female", "education": "high school", "ai-experience": "1", "condition": 0, "native": "yes"}, "trialData": {"rt": 7374, "Aclass": "Machine", "imageID": "https://xiaoturing.s3.us-east-1.amazonaws.com/obj_det/423.jpg", "trial": 57, "page_name": "423_e_0.html/", "phase": "TEST", "response_gender": "NA", "response_speaker": "machine", "response_object": "1", "groundtruth": "machine", "object_groundtruth": "0", "machine_groundtruth": "Rekognition"}}, "Trial_Obj_134": {"workerID": "A1FVXS8IM5QYO8", "workerData": {"country": "United States", "age": "51", "engagement": "10", "difficulty": "6", "mode": "live", "gender": "female", "education": "high school", "ai-experience": "1", "condition": 0, "native": "yes"}, "trialData": {"rt": 8211, "Aclass": "Machine", "imageID": "https://xiaoturing.s3.us-east-1.amazonaws.com/obj_det/4871.jpg", "trial": 58, "page_name": "4871_d_0.html/", "phase": "TEST", "response_gender": "NA", "response_speaker": "machine", "response_object": "1", "groundtruth": "machine", "object_groundtruth": "0", "machine_groundtruth": "Google"}}, "Trial_Obj_135": {"workerID": "A1FVXS8IM5QYO8", "workerData": {"country": "United States", "age": "51", "engagement": "10", "difficulty": "6", "mode": "live", "gender": "female", "education": "high school", "ai-experience": "1", "condition": 0, "native": "yes"}, "trialData": {"rt": 6384, "Aclass": "Human", "imageID": "https://xiaoturing.s3.us-east-1.amazonaws.com/obj_det/1968.jpg", "trial": 59, "page_name": "1968_a_0.html/", "phase": "TEST", "response_gender": "NA", "response_speaker": "human", "response_object": "1", "groundtruth": "human", "object_groundtruth": "0", "machine_groundtruth": ""}}, "Trial_Obj_136": {"workerID": "A1FVXS8IM5QYO8", "workerData": {"country": "United States", "age": "51", "engagement": "10", "difficulty": "6", "mode": "live", "gender": "female", "education": "high school", "ai-experience": "1", "condition": 0, "native": "yes"}, "trialData": {"rt": 6504, "Aclass": "Machine", "imageID": "https://xiaoturing.s3.us-east-1.amazonaws.com/obj_det/908.jpg", "trial": 60, "page_name": "908_a_0.html/", "phase": "TEST", "response_gender": "NA", "response_speaker": "machine", "response_object": "2", "groundtruth": "human", "object_groundtruth": "1", "machine_groundtruth": ""}}, "Trial_Obj_137": {"workerID": "A1FVXS8IM5QYO8", "workerData": {"country": "United States", "age": "51", "engagement": "10", "difficulty": "6", "mode": "live", "gender": "female", "education": "high school", "ai-experience": "1", "condition": 0, "native": "yes"}, "trialData": {"rt": 8203, "Aclass": "Human", "imageID": "https://xiaoturing.s3.us-east-1.amazonaws.com/obj_det/884.jpg", "trial": 61, "page_name": "884_a_0.html/", "phase": "TEST", "response_gender": "NA", "response_speaker": "human", "response_object": "2", "groundtruth": "human", "object_groundtruth": "1", "machine_groundtruth": ""}}, "Trial_Obj_138": {"workerID": "A1FVXS8IM5QYO8", "workerData": {"country": "United States", "age": "51", "engagement": "10", "difficulty": "6", "mode": "live", "gender": "female", "education": "high school", "ai-experience": "1", "condition": 0, "native": "yes"}, "trialData": {"rt": 13686, "Aclass": "Human", "imageID": "https://xiaoturing.s3.us-east-1.amazonaws.com/obj_det/616.jpg", "trial": 62, "page_name": "616_a_0.html/", "phase": "TEST", "response_gender": "NA", "response_speaker": "human", "response_object": "1", "groundtruth": "human", "object_groundtruth": "0", "machine_groundtruth": ""}}, "Trial_Obj_139": {"workerID": "A1FVXS8IM5QYO8", "workerData": {"country": "United States", "age": "51", "engagement": "10", "difficulty": "6", "mode": "live", "gender": "female", "education": "high school", "ai-experience": "1", "condition": 0, "native": "yes"}, "trialData": {"rt": 8861, "Aclass": "Machine", "imageID": "https://xiaoturing.s3.us-east-1.amazonaws.com/obj_det/687.jpg", "trial": 63, "page_name": "687_d_0.html/", "phase": "TEST", "response_gender": "NA", "response_speaker": "machine", "response_object": "2", "groundtruth": "machine", "object_groundtruth": "1", "machine_groundtruth": "Google"}}, "Trial_Obj_140": {"workerID": "A1FVXS8IM5QYO8", "workerData": {"country": "United States", "age": "51", "engagement": "10", "difficulty": "6", "mode": "live", "gender": "female", "education": "high school", "ai-experience": "1", "condition": 0, "native": "yes"}, "trialData": {"rt": 6592, "Aclass": "Human", "imageID": "https://xiaoturing.s3.us-east-1.amazonaws.com/obj_det/2694.jpg", "trial": 64, "page_name": "2694_a_0.html/", "phase": "TEST", "response_gender": "NA", "response_speaker": "human", "response_object": "2", "groundtruth": "human", "object_groundtruth": "1", "machine_groundtruth": ""}}, "Trial_Obj_141": {"workerID": "A1FVXS8IM5QYO8", "workerData": {"country": "United States", "age": "51", "engagement": "10", "difficulty": "6", "mode": "live", "gender": "female", "education": "high school", "ai-experience": "1", "condition": 0, "native": "yes"}, "trialData": {"rt": 7810, "Aclass": "Human", "imageID": "https://xiaoturing.s3.us-east-1.amazonaws.com/obj_det/121.jpg", "trial": 66, "page_name": "121_a_0.html/", "phase": "TEST", "response_gender": "NA", "response_speaker": "human", "response_object": "2", "groundtruth": "human", "object_groundtruth": "1", "machine_groundtruth": ""}}, "Trial_Obj_142": {"workerID": "A1FVXS8IM5QYO8", "workerData": {"country": "United States", "age": "51", "engagement": "10", "difficulty": "6", "mode": "live", "gender": "female", "education": "high school", "ai-experience": "1", "condition": 0, "native": "yes"}, "trialData": {"rt": 7326, "Aclass": "Machine", "imageID": "https://xiaoturing.s3.us-east-1.amazonaws.com/obj_det/2278.jpg", "trial": 67, "page_name": "2278_c_0.html/", "phase": "TEST", "response_gender": "NA", "response_speaker": "machine", "response_object": "2", "groundtruth": "machine", "object_groundtruth": "1", "machine_groundtruth": "Detectron"}}, "Trial_Obj_143": {"workerID": "A1FVXS8IM5QYO8", "workerData": {"country": "United States", "age": "51", "engagement": "10", "difficulty": "6", "mode": "live", "gender": "female", "education": "high school", "ai-experience": "1", "condition": 0, "native": "yes"}, "trialData": {"rt": 8048, "Aclass": "Machine", "imageID": "https://xiaoturing.s3.us-east-1.amazonaws.com/obj_det/1094.jpg", "trial": 68, "page_name": "1094_a_0.html/", "phase": "TEST", "response_gender": "NA", "response_speaker": "machine", "response_object": "1", "groundtruth": "human", "object_groundtruth": "0", "machine_groundtruth": ""}}, "Trial_Obj_144": {"workerID": "A1FVXS8IM5QYO8", "workerData": {"country": "United States", "age": "51", "engagement": "10", "difficulty": "6", "mode": "live", "gender": "female", "education": "high school", "ai-experience": "1", "condition": 0, "native": "yes"}, "trialData": {"rt": 6863, "Aclass": "Machine", "imageID": "https://xiaoturing.s3.us-east-1.amazonaws.com/obj_det/1139.jpg", "trial": 69, "page_name": "1139_c_0.html/", "phase": "TEST", "response_gender": "NA", "response_speaker": "machine", "response_object": "1", "groundtruth": "machine", "object_groundtruth": "0", "machine_groundtruth": "Detectron"}}, "Trial_Obj_145": {"workerID": "A1FVXS8IM5QYO8", "workerData": {"country": "United States", "age": "51", "engagement": "10", "difficulty": "6", "mode": "live", "gender": "female", "education": "high school", "ai-experience": "1", "condition": 0, "native": "yes"}, "trialData": {"rt": 9134, "Aclass": "Machine", "imageID": "https://xiaoturing.s3.us-east-1.amazonaws.com/obj_det/742.jpg", "trial": 70, "page_name": "742_a_0.html/", "phase": "TEST", "response_gender": "NA", "response_speaker": "machine", "response_object": "1", "groundtruth": "human", "object_groundtruth": "0", "machine_groundtruth": ""}}, "Trial_Obj_146": {"workerID": "A1FVXS8IM5QYO8", "workerData": {"country": "United States", "age": "51", "engagement": "10", "difficulty": "6", "mode": "live", "gender": "female", "education": "high school", "ai-experience": "1", "condition": 0, "native": "yes"}, "trialData": {"rt": 8187, "Aclass": "Machine", "imageID": "https://xiaoturing.s3.us-east-1.amazonaws.com/obj_det/4089.jpg", "trial": 71, "page_name": "4089_c_0.html/", "phase": "TEST", "response_gender": "NA", "response_speaker": "machine", "response_object": "2", "groundtruth": "machine", "object_groundtruth": "1", "machine_groundtruth": "Detectron"}}, "Trial_Obj_147": {"workerID": "A1FVXS8IM5QYO8", "workerData": {"country": "United States", "age": "51", "engagement": "10", "difficulty": "6", "mode": "live", "gender": "female", "education": "high school", "ai-experience": "1", "condition": 0, "native": "yes"}, "trialData": {"rt": 9518, "Aclass": "Machine", "imageID": "https://xiaoturing.s3.us-east-1.amazonaws.com/obj_det/2127.jpg", "trial": 73, "page_name": "2127_a_0.html/", "phase": "TEST", "response_gender": "NA", "response_speaker": "machine", "response_object": "1", "groundtruth": "human", "object_groundtruth": "0", "machine_groundtruth": ""}}, "Trial_Obj_148": {"workerID": "A1FVXS8IM5QYO8", "workerData": {"country": "United States", "age": "51", "engagement": "10", "difficulty": "6", "mode": "live", "gender": "female", "education": "high school", "ai-experience": "1", "condition": 0, "native": "yes"}, "trialData": {"rt": 12596, "Aclass": "Machine", "imageID": "https://xiaoturing.s3.us-east-1.amazonaws.com/obj_det/726.jpg", "trial": 74, "page_name": "726_b_0.html/", "phase": "TEST", "response_gender": "NA", "response_speaker": "machine", "response_object": "1", "groundtruth": "machine", "object_groundtruth": "1", "machine_groundtruth": "Azure"}}, "Trial_Obj_149": {"workerID": "A1FVXS8IM5QYO8", "workerData": {"country": "United States", "age": "51", "engagement": "10", "difficulty": "6", "mode": "live", "gender": "female", "education": "high school", "ai-experience": "1", "condition": 0, "native": "yes"}, "trialData": {"rt": 7884, "Aclass": "Machine", "imageID": "https://xiaoturing.s3.us-east-1.amazonaws.com/obj_det/4334.jpg", "trial": 76, "page_name": "4334_e_0.html/", "phase": "TEST", "response_gender": "NA", "response_speaker": "machine", "response_object": "1", "groundtruth": "machine", "object_groundtruth": "0", "machine_groundtruth": "Rekognition"}}, "Trial_Obj_150": {"workerID": "A1FVXS8IM5QYO8", "workerData": {"country": "United States", "age": "51", "engagement": "10", "difficulty": "6", "mode": "live", "gender": "female", "education": "high school", "ai-experience": "1", "condition": 0, "native": "yes"}, "trialData": {"rt": 6766, "Aclass": "Human", "imageID": "https://xiaoturing.s3.us-east-1.amazonaws.com/obj_det/229.jpg", "trial": 78, "page_name": "229_a_0.html/", "phase": "TEST", "response_gender": "NA", "response_speaker": "human", "response_object": "2", "groundtruth": "human", "object_groundtruth": "1", "machine_groundtruth": ""}}, "Trial_Obj_151": {"workerID": "A1FVXS8IM5QYO8", "workerData": {"country": "United States", "age": "51", "engagement": "10", "difficulty": "6", "mode": "live", "gender": "female", "education": "high school", "ai-experience": "1", "condition": 0, "native": "yes"}, "trialData": {"rt": 6943, "Aclass": "Machine", "imageID": "https://xiaoturing.s3.us-east-1.amazonaws.com/obj_det/85.jpg", "trial": 80, "page_name": "85_a_0.html/", "phase": "TEST", "response_gender": "NA", "response_speaker": "machine", "response_object": "1", "groundtruth": "human", "object_groundtruth": "0", "machine_groundtruth": ""}}, "Trial_Obj_152": {"workerID": "A1FVXS8IM5QYO8", "workerData": {"country": "United States", "age": "51", "engagement": "10", "difficulty": "6", "mode": "live", "gender": "female", "education": "high school", "ai-experience": "1", "condition": 0, "native": "yes"}, "trialData": {"rt": 12876, "Aclass": "Machine", "imageID": "https://xiaoturing.s3.us-east-1.amazonaws.com/obj_det/114.jpg", "trial": 81, "page_name": "114_b_0.html/", "phase": "TEST", "response_gender": "NA", "response_speaker": "machine", "response_object": "2", "groundtruth": "machine", "object_groundtruth": "0", "machine_groundtruth": "Azure"}}, "Trial_Obj_153": {"workerID": "A1FVXS8IM5QYO8", "workerData": {"country": "United States", "age": "51", "engagement": "10", "difficulty": "6", "mode": "live", "gender": "female", "education": "high school", "ai-experience": "1", "condition": 0, "native": "yes"}, "trialData": {"rt": 7679, "Aclass": "Machine", "imageID": "https://xiaoturing.s3.us-east-1.amazonaws.com/obj_det/305.jpg", "trial": 82, "page_name": "305_e_0.html/", "phase": "TEST", "response_gender": "NA", "response_speaker": "machine", "response_object": "1", "groundtruth": "machine", "object_groundtruth": "0", "machine_groundtruth": "Rekognition"}}, "Trial_Obj_154": {"workerID": "A1FVXS8IM5QYO8", "workerData": {"country": "United States", "age": "51", "engagement": "10", "difficulty": "6", "mode": "live", "gender": "female", "education": "high school", "ai-experience": "1", "condition": 0, "native": "yes"}, "trialData": {"rt": 8010, "Aclass": "Human", "imageID": "https://xiaoturing.s3.us-east-1.amazonaws.com/obj_det/1883.jpg", "trial": 84, "page_name": "1883_a_0.html/", "phase": "TEST", "response_gender": "NA", "response_speaker": "human", "response_object": "1", "groundtruth": "human", "object_groundtruth": "0", "machine_groundtruth": ""}}, "Trial_Obj_155": {"workerID": "A1FVXS8IM5QYO8", "workerData": {"country": "United States", "age": "51", "engagement": "10", "difficulty": "6", "mode": "live", "gender": "female", "education": "high school", "ai-experience": "1", "condition": 0, "native": "yes"}, "trialData": {"rt": 6846, "Aclass": "Human", "imageID": "https://xiaoturing.s3.us-east-1.amazonaws.com/obj_det/450.jpg", "trial": 85, "page_name": "450_a_0.html/", "phase": "TEST", "response_gender": "NA", "response_speaker": "human", "response_object": "1", "groundtruth": "human", "object_groundtruth": "0", "machine_groundtruth": ""}}, "Trial_Obj_156": {"workerID": "A1FVXS8IM5QYO8", "workerData": {"country": "United States", "age": "51", "engagement": "10", "difficulty": "6", "mode": "live", "gender": "female", "education": "high school", "ai-experience": "1", "condition": 0, "native": "yes"}, "trialData": {"rt": 7265, "Aclass": "Machine", "imageID": "https://xiaoturing.s3.us-east-1.amazonaws.com/obj_det/114.jpg", "trial": 86, "page_name": "114_e_0.html/", "phase": "TEST", "response_gender": "NA", "response_speaker": "machine", "response_object": "2", "groundtruth": "machine", "object_groundtruth": "1", "machine_groundtruth": "Rekognition"}}, "Trial_Obj_157": {"workerID": "A1FVXS8IM5QYO8", "workerData": {"country": "United States", "age": "51", "engagement": "10", "difficulty": "6", "mode": "live", "gender": "female", "education": "high school", "ai-experience": "1", "condition": 0, "native": "yes"}, "trialData": {"rt": 8196, "Aclass": "Machine", "imageID": "https://xiaoturing.s3.us-east-1.amazonaws.com/obj_det/498.jpg", "trial": 87, "page_name": "498_d_0.html/", "phase": "TEST", "response_gender": "NA", "response_speaker": "machine", "response_object": "2", "groundtruth": "machine", "object_groundtruth": "1", "machine_groundtruth": "Google"}}, "Trial_Obj_158": {"workerID": "A1FVXS8IM5QYO8", "workerData": {"country": "United States", "age": "51", "engagement": "10", "difficulty": "6", "mode": "live", "gender": "female", "education": "high school", "ai-experience": "1", "condition": 0, "native": "yes"}, "trialData": {"rt": 10239, "Aclass": "Machine", "imageID": "https://xiaoturing.s3.us-east-1.amazonaws.com/obj_det/474.jpg", "trial": 88, "page_name": "474_b_0.html/", "phase": "TEST", "response_gender": "NA", "response_speaker": "machine", "response_object": "2", "groundtruth": "machine", "object_groundtruth": "1", "machine_groundtruth": "Azure"}}, "Trial_Obj_159": {"workerID": "A1FVXS8IM5QYO8", "workerData": {"country": "United States", "age": "51", "engagement": "10", "difficulty": "6", "mode": "live", "gender": "female", "education": "high school", "ai-experience": "1", "condition": 0, "native": "yes"}, "trialData": {"rt": 9275, "Aclass": "Human", "imageID": "https://xiaoturing.s3.us-east-1.amazonaws.com/obj_det/2870.jpg", "trial": 89, "page_name": "2870_a_0.html/", "phase": "TEST", "response_gender": "NA", "response_speaker": "human", "response_object": "2", "groundtruth": "human", "object_groundtruth": "1", "machine_groundtruth": ""}}, "Trial_Obj_160": {"workerID": "A1FVXS8IM5QYO8", "workerData": {"country": "United States", "age": "51", "engagement": "10", "difficulty": "6", "mode": "live", "gender": "female", "education": "high school", "ai-experience": "1", "condition": 0, "native": "yes"}, "trialData": {"rt": 10557, "Aclass": "Machine", "imageID": "https://xiaoturing.s3.us-east-1.amazonaws.com/obj_det/573.jpg", "trial": 90, "page_name": "573_a_0.html/", "phase": "TEST", "response_gender": "NA", "response_speaker": "machine", "response_object": "2", "groundtruth": "human", "object_groundtruth": "1", "machine_groundtruth": ""}}, "Trial_Obj_161": {"workerID": "A2IQ0QCTQ3KWLT", "workerData": {"country": "United States", "age": "51", "engagement": "10", "difficulty": "5", "mode": "live", "gender": "female", "education": "high school", "ai-experience": "1", "condition": 0, "native": "yes"}, "trialData": {"rt": 11644, "Aclass": "Human", "hit": "864", "imageID": "https://xiaoturing.s3.us-east-1.amazonaws.com/obj_det/763.jpg", "trial": 41, "page_name": "763_a_0.html/", "phase": "TEST", "response_gender": "NA", "response_speaker": "human", "response_object": "2", "groundtruth": "human", "object_groundtruth": "1", "machine_groundtruth": ""}}, "Trial_Obj_162": {"workerID": "A2IQ0QCTQ3KWLT", "workerData": {"country": "United States", "age": "51", "engagement": "10", "difficulty": "5", "mode": "live", "gender": "female", "education": "high school", "ai-experience": "1", "condition": 0, "native": "yes"}, "trialData": {"rt": 5556, "Aclass": "Human", "hit": "12", "imageID": "https://xiaoturing.s3.us-east-1.amazonaws.com/obj_det/578.jpg", "trial": 42, "page_name": "578_b_0.html/", "phase": "TEST", "response_gender": "NA", "response_speaker": "human", "response_object": "1", "groundtruth": "machine", "object_groundtruth": "0", "machine_groundtruth": "Azure"}}, "Trial_Obj_163": {"workerID": "A2IQ0QCTQ3KWLT", "workerData": {"country": "United States", "age": "51", "engagement": "10", "difficulty": "5", "mode": "live", "gender": "female", "education": "high school", "ai-experience": "1", "condition": 0, "native": "yes"}, "trialData": {"rt": 6940, "Aclass": "Machine", "hit": "229", "imageID": "https://xiaoturing.s3.us-east-1.amazonaws.com/obj_det/898.jpg", "trial": 43, "page_name": "898_a_0.html/", "phase": "TEST", "response_gender": "NA", "response_speaker": "machine", "response_object": "1", "groundtruth": "human", "object_groundtruth": "0", "machine_groundtruth": ""}}, "Trial_Obj_164": {"workerID": "A2IQ0QCTQ3KWLT", "workerData": {"country": "United States", "age": "51", "engagement": "10", "difficulty": "5", "mode": "live", "gender": "female", "education": "high school", "ai-experience": "1", "condition": 0, "native": "yes"}, "trialData": {"rt": 10336, "Aclass": "Machine", "hit": "724", "imageID": "https://xiaoturing.s3.us-east-1.amazonaws.com/obj_det/3258.jpg", "trial": 45, "page_name": "3258_c_0.html/", "phase": "TEST", "response_gender": "NA", "response_speaker": "machine", "response_object": "2", "groundtruth": "machine", "object_groundtruth": "1", "machine_groundtruth": "Detectron"}}, "Trial_Obj_165": {"workerID": "A2IQ0QCTQ3KWLT", "workerData": {"country": "United States", "age": "51", "engagement": "10", "difficulty": "5", "mode": "live", "gender": "female", "education": "high school", "ai-experience": "1", "condition": 0, "native": "yes"}, "trialData": {"rt": 8263, "Aclass": "Human", "im