{"AIexperts": {"Trial_1": {"workerID": "debugfHSKc", "workerData": {"native": "yes", "age": "21-25", "gender": "male", "education": "master", "country": "Italy", "ai-experience": "2", "mode": "debug", "condition": 0, "engagement": "7", "difficulty": "5"}, "trialData": {"rt": 2571, "hit": "22_a_2.html", "trial": 3, "response_speaker": "Machine", "machine_groundtruth": "", "imageID": 22, "caption": "attentive", "counterbalance": 0, "groundtruth": "human", "phase": "TEST", "human_groundtruth": "human"}}, "Trial_2": {"workerID": "debugfHSKc", "workerData": {"native": "yes", "age": "21-25", "gender": "male", "education": "master", "country": "Italy", "ai-experience": "2", "mode": "debug", "condition": 0, "engagement": "7", "difficulty": "5"}, "trialData": {"rt": 2571, "hit": "140_a_3.html", "trial": 5, "response_speaker": "Human", "machine_groundtruth": "", "imageID": 140, "caption": "qualify", "counterbalance": 0, "groundtruth": "human", "phase": "TEST", "human_groundtruth": "human"}}, "Trial_3": {"workerID": "debugfHSKc", "workerData": {"native": "yes", "age": "21-25", "gender": "male", "education": "master", "country": "Italy", "ai-experience": "2", "mode": "debug", "condition": 0, "engagement": "7", "difficulty": "5"}, "trialData": {"rt": 2050, "hit": "73_e_0.html", "trial": 9, "response_speaker": "Human", "machine_groundtruth": "gpt3 (prompt curie)", "imageID": 73, "caption": "ammunition", "counterbalance": 0, "groundtruth": "machine", "phase": "TEST", "human_groundtruth": ""}}, "Trial_4": {"workerID": "debugfHSKc", "workerData": {"native": "yes", "age": "21-25", "gender": "male", "education": "master", "country": "Italy", "ai-experience": "2", "mode": "debug", "condition": 0, "engagement": "7", "difficulty": "5"}, "trialData": {"rt": 2082, "hit": "27_c_0.html", "trial": 12, "response_speaker": "Human", "machine_groundtruth": "gpt2", "imageID": 27, "caption": "obnoxious", "counterbalance": 0, "groundtruth": "machine", "phase": "TEST", "human_groundtruth": ""}}, "Trial_5": {"workerID": "debugfHSKc", "workerData": {"native": "yes", "age": "21-25", "gender": "male", "education": "master", "country": "Italy", "ai-experience": "2", "mode": "debug", "condition": 0, "engagement": "7", "difficulty": "5"}, "trialData": {"rt": 2921, "hit": "79_f_0.html", "trial": 14, "response_speaker": "Human", "machine_groundtruth": "gpt3 (prompt davinvci)", "imageID": 79, "caption": "blunt", "counterbalance": 0, "groundtruth": "machine", "phase": "TEST", "human_groundtruth": ""}}, "Trial_6": {"workerID": "debugfHSKc", "workerData": {"native": "yes", "age": "21-25", "gender": "male", "education": "master", "country": "Italy", "ai-experience": "2", "mode": "debug", "condition": 0, "engagement": "7", "difficulty": "5"}, "trialData": {"rt": 3305, "hit": "125_c_0.html", "trial": 15, "response_speaker": "Human", "machine_groundtruth": "gpt2", "imageID": 125, "caption": "establish", "counterbalance": 0, "groundtruth": "machine", "phase": "TEST", "human_groundtruth": ""}}, "Trial_7": {"workerID": "debugfHSKc", "workerData": {"native": "yes", "age": "21-25", "gender": "male", "education": "master", "country": "Italy", "ai-experience": "2", "mode": "debug", "condition": 0, "engagement": "7", "difficulty": "5"}, "trialData": {"rt": 6282, "hit": "120_a_3.html", "trial": 19, "response_speaker": "Human", "machine_groundtruth": "", "imageID": 120, "caption": "identify", "counterbalance": 0, "groundtruth": "human", "phase": "TEST", "human_groundtruth": "human"}}, "Trial_8": {"workerID": "debugfHSKc", "workerData": {"native": "yes", "age": "21-25", "gender": "male", "education": "master", "country": "Italy", "ai-experience": "2", "mode": "debug", "condition": 0, "engagement": "7", "difficulty": "5"}, "trialData": {"rt": 3217, "hit": "0_a_3.html", "trial": 22, "response_speaker": "Human", "machine_groundtruth": "", "imageID": 0, "caption": "memorable", "counterbalance": 0, "groundtruth": "human", "phase": "TEST", "human_groundtruth": "human"}}, "Trial_9": {"workerID": "debugfHSKc", "workerData": {"native": "yes", "age": "21-25", "gender": "male", "education": "master", "country": "Italy", "ai-experience": "2", "mode": "debug", "condition": 0, "engagement": "7", "difficulty": "5"}, "trialData": {"rt": 2385, "hit": "42_g_0.html", "trial": 24, "response_speaker": "Machine", "machine_groundtruth": "other", "imageID": 42, "caption": "suspicious", "counterbalance": 0, "groundtruth": "machine", "phase": "TEST", "human_groundtruth": ""}}, "Trial_10": {"workerID": "debugfHSKc", "workerData": {"native": "yes", "age": "21-25", "gender": "male", "education": "master", "country": "Italy", "ai-experience": "2", "mode": "debug", "condition": 0, "engagement": "7", "difficulty": "5"}, "trialData": {"rt": 17662, "hit": "74_d_0.html", "trial": 26, "response_speaker": "Machine", "machine_groundtruth": "gpt3 (embedding)", "imageID": 74, "caption": "nixon", "counterbalance": 0, "groundtruth": "machine", "phase": "TEST", "human_groundtruth": ""}}, "Trial_11": {"workerID": "debugfHSKc", "workerData": {"native": "yes", "age": "21-25", "gender": "male", "education": "master", "country": "Italy", "ai-experience": "2", "mode": "debug", "condition": 0, "engagement": "7", "difficulty": "5"}, "trialData": {"rt": 8431, "hit": "119_g_0.html", "trial": 27, "response_speaker": "Human", "machine_groundtruth": "other", "imageID": 119, "caption": "assume", "counterbalance": 0, "groundtruth": "machine", "phase": "TEST", "human_groundtruth": ""}}, "Trial_12": {"workerID": "debugfHSKc", "workerData": {"native": "yes", "age": "21-25", "gender": "male", "education": "master", "country": "Italy", "ai-experience": "2", "mode": "debug", "condition": 0, "engagement": "7", "difficulty": "5"}, "trialData": {"rt": 2290, "hit": "78_a_0.html", "trial": 28, "response_speaker": "Human", "machine_groundtruth": "", "imageID": 78, "caption": "peanut", "counterbalance": 0, "groundtruth": "human", "phase": "TEST", "human_groundtruth": "human"}}, "Trial_13": {"workerID": "debugfHSKc", "workerData": {"native": "yes", "age": "21-25", "gender": "male", "education": "master", "country": "Italy", "ai-experience": "2", "mode": "debug", "condition": 0, "engagement": "7", "difficulty": "5"}, "trialData": {"rt": 1787, "hit": "92_f_0.html", "trial": 29, "response_speaker": "Machine", "machine_groundtruth": "gpt3 (prompt davinvci)", "imageID": 92, "caption": "constitute", "counterbalance": 0, "groundtruth": "machine", "phase": "TEST", "human_groundtruth": ""}}, "Trial_14": {"workerID": "debugfHSKc", "workerData": {"native": "yes", "age": "21-25", "gender": "male", "education": "master", "country": "Italy", "ai-experience": "2", "mode": "debug", "condition": 0, "engagement": "7", "difficulty": "5"}, "trialData": {"rt": 49134, "hit": "102_a_2.html", "trial": 31, "response_speaker": "Human", "machine_groundtruth": "", "imageID": 102, "caption": "impose", "counterbalance": 0, "groundtruth": "human", "phase": "TEST", "human_groundtruth": "human"}}, "Trial_15": {"workerID": "debugfHSKc", "workerData": {"native": "yes", "age": "21-25", "gender": "male", "education": "master", "country": "Italy", "ai-experience": "2", "mode": "debug", "condition": 0, "engagement": "7", "difficulty": "5"}, "trialData": {"rt": 101991, "hit": "123_a_1.html", "trial": 32, "response_speaker": "Human", "machine_groundtruth": "", "imageID": 123, "caption": "watershed", "counterbalance": 0, "groundtruth": "human", "phase": "TEST", "human_groundtruth": "human"}}, "Trial_16": {"workerID": "debugfHSKc", "workerData": {"native": "yes", "age": "21-25", "gender": "male", "education": "master", "country": "Italy", "ai-experience": "2", "mode": "debug", "condition": 0, "engagement": "7", "difficulty": "5"}, "trialData": {"rt": 5369, "hit": "88_a_2.html", "trial": 33, "response_speaker": "Machine", "machine_groundtruth": "", "imageID": 88, "caption": "curtain", "counterbalance": 0, "groundtruth": "human", "phase": "TEST", "human_groundtruth": "human"}}, "Trial_17": {"workerID": "debugfHSKc", "workerData": {"native": "yes", "age": "21-25", "gender": "male", "education": "master", "country": "Italy", "ai-experience": "2", "mode": "debug", "condition": 0, "engagement": "7", "difficulty": "5"}, "trialData": {"rt": 4570, "hit": "137_g_0.html", "trial": 35, "response_speaker": "Machine", "machine_groundtruth": "other", "imageID": 137, "caption": "fred", "counterbalance": 0, "groundtruth": "machine", "phase": "TEST", "human_groundtruth": ""}}, "Trial_18": {"workerID": "debugfHSKc", "workerData": {"native": "yes", "age": "21-25", "gender": "male", "education": "master", "country": "Italy", "ai-experience": "2", "mode": "debug", "condition": 0, "engagement": "7", "difficulty": "5"}, "trialData": {"rt": 2835, "hit": "141_g_0.html", "trial": 36, "response_speaker": "Human", "machine_groundtruth": "other", "imageID": 141, "caption": "kindred", "counterbalance": 0, "groundtruth": "machine", "phase": "TEST", "human_groundtruth": ""}}, "Trial_19": {"workerID": "debugfHSKc", "workerData": {"native": "yes", "age": "21-25", "gender": "male", "education": "master", "country": "Italy", "ai-experience": "2", "mode": "debug", "condition": 0, "engagement": "7", "difficulty": "5"}, "trialData": {"rt": 2331, "hit": "69_g_0.html", "trial": 40, "response_speaker": "Human", "machine_groundtruth": "other", "imageID": 69, "caption": "cancer", "counterbalance": 0, "groundtruth": "machine", "phase": "TEST", "human_groundtruth": ""}}, "Trial_20": {"workerID": "debugfHSKc", "workerData": {"native": "yes", "age": "21-25", "gender": "male", "education": "master", "country": "Italy", "ai-experience": "2", "mode": "debug", "condition": 0, "engagement": "7", "difficulty": "5"}, "trialData": {"rt": 6268, "hit": "41_f_0.html", "trial": 41, "response_speaker": "Human", "machine_groundtruth": "gpt3 (prompt davinvci)", "imageID": 41, "caption": "schematic", "counterbalance": 0, "groundtruth": "machine", "phase": "TEST", "human_groundtruth": ""}}, "Trial_21": {"workerID": "debugfHSKc", "workerData": {"native": "yes", "age": "21-25", "gender": "male", "education": "master", "country": "Italy", "ai-experience": "2", "mode": "debug", "condition": 0, "engagement": "7", "difficulty": "5"}, "trialData": {"rt": 2939, "hit": "135_g_0.html", "trial": 43, "response_speaker": "Machine", "machine_groundtruth": "other", "imageID": 135, "caption": "quantify", "counterbalance": 0, "groundtruth": "machine", "phase": "TEST", "human_groundtruth": ""}}, "Trial_22": {"workerID": "debugfHSKc", "workerData": {"native": "yes", "age": "21-25", "gender": "male", "education": "master", "country": "Italy", "ai-experience": "2", "mode": "debug", "condition": 0, "engagement": "7", "difficulty": "5"}, "trialData": {"rt": 2420, "hit": "123_e_0.html", "trial": 44, "response_speaker": "Machine", "machine_groundtruth": "gpt3 (prompt curie)", "imageID": 123, "caption": "watershed", "counterbalance": 0, "groundtruth": "machine", "phase": "TEST", "human_groundtruth": ""}}, "Trial_23": {"workerID": "debugfHSKc", "workerData": {"native": "yes", "age": "21-25", "gender": "male", "education": "master", "country": "Italy", "ai-experience": "2", "mode": "debug", "condition": 0, "engagement": "7", "difficulty": "5"}, "trialData": {"rt": 16497, "hit": "39_a_3.html", "trial": 45, "response_speaker": "Human", "machine_groundtruth": "", "imageID": 39, "caption": "revolutionary", "counterbalance": 0, "groundtruth": "human", "phase": "TEST", "human_groundtruth": "human"}}, "Trial_24": {"workerID": "debugfHSKc", "workerData": {"native": "yes", "age": "21-25", "gender": "male", "education": "master", "country": "Italy", "ai-experience": "2", "mode": "debug", "condition": 0, "engagement": "7", "difficulty": "5"}, "trialData": {"rt": 2826, "hit": "42_g_0.html", "trial": 48, "response_speaker": "Machine", "machine_groundtruth": "other", "imageID": 42, "caption": "suspicious", "counterbalance": 0, "groundtruth": "machine", "phase": "TEST", "human_groundtruth": ""}}, "Trial_25": {"workerID": "debugfHSKc", "workerData": {"native": "yes", "age": "21-25", "gender": "male", "education": "master", "country": "Italy", "ai-experience": "2", "mode": "debug", "condition": 0, "engagement": "7", "difficulty": "5"}, "trialData": {"rt": 3165, "hit": "30_c_0.html", "trial": 51, "response_speaker": "Human", "machine_groundtruth": "gpt2", "imageID": 30, "caption": "ingenious", "counterbalance": 0, "groundtruth": "machine", "phase": "TEST", "human_groundtruth": ""}}, "Trial_26": {"workerID": "debugfHSKc", "workerData": {"native": "yes", "age": "21-25", "gender": "male", "education": "master", "country": "Italy", "ai-experience": "2", "mode": "debug", "condition": 0, "engagement": "7", "difficulty": "5"}, "trialData": {"rt": 4470, "hit": "74_d_0.html", "trial": 52, "response_speaker": "Machine", "machine_groundtruth": "gpt3 (embedding)", "imageID": 74, "caption": "nixon", "counterbalance": 0, "groundtruth": "machine", "phase": "TEST", "human_groundtruth": ""}}, "Trial_27": {"workerID": "debugfHSKc", "workerData": {"native": "yes", "age": "21-25", "gender": "male", "education": "master", "country": "Italy", "ai-experience": "2", "mode": "debug", "condition": 0, "engagement": "7", "difficulty": "5"}, "trialData": {"rt": 3075, "hit": "123_c_0.html", "trial": 53, "response_speaker": "Machine", "machine_groundtruth": "gpt2", "imageID": 123, "caption": "watershed", "counterbalance": 0, "groundtruth": "machine", "phase": "TEST", "human_groundtruth": ""}}, "Trial_28": {"workerID": "debugfHSKc", "workerData": {"native": "yes", "age": "21-25", "gender": "male", "education": "master", "country": "Italy", "ai-experience": "2", "mode": "debug", "condition": 0, "engagement": "7", "difficulty": "5"}, "trialData": {"rt": 2341, "hit": "119_g_0.html", "trial": 54, "response_speaker": "Machine", "machine_groundtruth": "other", "imageID": 119, "caption": "assume", "counterbalance": 0, "groundtruth": "machine", "phase": "TEST", "human_groundtruth": ""}}, "Trial_29": {"workerID": "debugfHSKc", "workerData": {"native": "yes", "age": "21-25", "gender": "male", "education": "master", "country": "Italy", "ai-experience": "2", "mode": "debug", "condition": 0, "engagement": "7", "difficulty": "5"}, "trialData": {"rt": 2583, "hit": "138_a_4.html", "trial": 55, "response_speaker": "Machine", "machine_groundtruth": "", "imageID": 138, "caption": "enclave", "counterbalance": 0, "groundtruth": "human", "phase": "TEST", "human_groundtruth": "human"}}, "Trial_30": {"workerID": "debugfHSKc", "workerData": {"native": "yes", "age": "21-25", "gender": "male", "education": "master", "country": "Italy", "ai-experience": "2", "mode": "debug", "condition": 0, "engagement": "7", "difficulty": "5"}, "trialData": {"rt": 2074, "hit": "78_a_0.html", "trial": 56, "response_speaker": "Human", "machine_groundtruth": "", "imageID": 78, "caption": "peanut", "counterbalance": 0, "groundtruth": "human", "phase": "TEST", "human_groundtruth": "human"}}, "Trial_31": {"workerID": "debugfHSKc", "workerData": {"native": "yes", "age": "21-25", "gender": "male", "education": "master", "country": "Italy", "ai-experience": "2", "mode": "debug", "condition": 0, "engagement": "7", "difficulty": "5"}, "trialData": {"rt": 2827, "hit": "60_g_0.html", "trial": 57, "response_speaker": "Machine", "machine_groundtruth": "other", "imageID": 60, "caption": "revelation", "counterbalance": 0, "groundtruth": "machine", "phase": "TEST", "human_groundtruth": ""}}, "Trial_32": {"workerID": "debugfHSKc", "workerData": {"native": "yes", "age": "21-25", "gender": "male", "education": "master", "country": "Italy", "ai-experience": "2", "mode": "debug", "condition": 0, "engagement": "7", "difficulty": "5"}, "trialData": {"rt": 2255, "hit": "92_f_0.html", "trial": 58, "response_speaker": "Human", "machine_groundtruth": "gpt3 (prompt davinvci)", "imageID": 92, "caption": "constitute", "counterbalance": 0, "groundtruth": "machine", "phase": "TEST", "human_groundtruth": ""}}, "Trial_33": {"workerID": "debugfHSKc", "workerData": {"native": "yes", "age": "21-25", "gender": "male", "education": "master", "country": "Italy", "ai-experience": "2", "mode": "debug", "condition": 0, "engagement": "7", "difficulty": "5"}, "trialData": {"rt": 2233, "hit": "30_g_0.html", "trial": 59, "response_speaker": "Machine", "machine_groundtruth": "other", "imageID": 30, "caption": "ingenious", "counterbalance": 0, "groundtruth": "machine", "phase": "TEST", "human_groundtruth": ""}}, "Trial_34": {"workerID": "debugfHSKc", "workerData": {"native": "yes", "age": "21-25", "gender": "male", "education": "master", "country": "Italy", "ai-experience": "2", "mode": "debug", "condition": 0, "engagement": "7", "difficulty": "5"}, "trialData": {"rt": 4939, "hit": "9_a_2.html", "trial": 61, "response_speaker": "Human", "machine_groundtruth": "", "imageID": 9, "caption": "oriental", "counterbalance": 0, "groundtruth": "human", "phase": "TEST", "human_groundtruth": "human"}}, "Trial_35": {"workerID": "debugfHSKc", "workerData": {"native": "yes", "age": "21-25", "gender": "male", "education": "master", "country": "Italy", "ai-experience": "2", "mode": "debug", "condition": 0, "engagement": "7", "difficulty": "5"}, "trialData": {"rt": 3064, "hit": "102_a_2.html", "trial": 62, "response_speaker": "Human", "machine_groundtruth": "", "imageID": 102, "caption": "impose", "counterbalance": 0, "groundtruth": "human", "phase": "TEST", "human_groundtruth": "human"}}, "Trial_36": {"workerID": "debugfHSKc", "workerData": {"native": "yes", "age": "21-25", "gender": "male", "education": "master", "country": "Italy", "ai-experience": "2", "mode": "debug", "condition": 0, "engagement": "7", "difficulty": "5"}, "trialData": {"rt": 2300, "hit": "64_d_0.html", "trial": 63, "response_speaker": "Machine", "machine_groundtruth": "gpt3 (embedding)", "imageID": 64, "caption": "oppose", "counterbalance": 0, "groundtruth": "machine", "phase": "TEST", "human_groundtruth": ""}}, "Trial_37": {"workerID": "debugfHSKc", "workerData": {"native": "yes", "age": "21-25", "gender": "male", "education": "master", "country": "Italy", "ai-experience": "2", "mode": "debug", "condition": 0, "engagement": "7", "difficulty": "5"}, "trialData": {"rt": 6052, "hit": "123_a_1.html", "trial": 64, "response_speaker": "Human", "machine_groundtruth": "", "imageID": 123, "caption": "watershed", "counterbalance": 0, "groundtruth": "human", "phase": "TEST", "human_groundtruth": "human"}}, "Trial_38": {"workerID": "debugfHSKc", "workerData": {"native": "yes", "age": "21-25", "gender": "male", "education": "master", "country": "Italy", "ai-experience": "2", "mode": "debug", "condition": 0, "engagement": "7", "difficulty": "5"}, "trialData": {"rt": 2284, "hit": "88_a_2.html", "trial": 66, "response_speaker": "Human", "machine_groundtruth": "", "imageID": 88, "caption": "curtain", "counterbalance": 0, "groundtruth": "human", "phase": "TEST", "human_groundtruth": "human"}}, "Trial_39": {"workerID": "debugfHSKc", "workerData": {"native": "yes", "age": "21-25", "gender": "male", "education": "master", "country": "Italy", "ai-experience": "2", "mode": "debug", "condition": 0, "engagement": "7", "difficulty": "5"}, "trialData": {"rt": 1844, "hit": "66_b_0.html", "trial": 69, "response_speaker": "Human", "machine_groundtruth": "word2vec", "imageID": 66, "caption": "battlefield", "counterbalance": 0, "groundtruth": "machine", "phase": "TEST", "human_groundtruth": ""}}, "Trial_40": {"workerID": "debugfHSKc", "workerData": {"native": "yes", "age": "21-25", "gender": "male", "education": "master", "country": "Italy", "ai-experience": "2", "mode": "debug", "condition": 0, "engagement": "7", "difficulty": "5"}, "trialData": {"rt": 1660, "hit": "137_g_0.html", "trial": 70, "response_speaker": "Machine", "machine_groundtruth": "other", "imageID": 137, "caption": "fred", "counterbalance": 0, "groundtruth": "machine", "phase": "TEST", "human_groundtruth": ""}}, "Trial_41": {"workerID": "debugfHSKc", "workerData": {"native": "yes", "age": "21-25", "gender": "male", "education": "master", "country": "Italy", "ai-experience": "2", "mode": "debug", "condition": 0, "engagement": "7", "difficulty": "5"}, "trialData": {"rt": 3465, "hit": "65_a_0.html", "trial": 71, "response_speaker": "Machine", "machine_groundtruth": "", "imageID": 65, "caption": "zombie", "counterbalance": 0, "groundtruth": "human", "phase": "TEST", "human_groundtruth": "human"}}, "Trial_42": {"workerID": "debugfHSKc", "workerData": {"native": "yes", "age": "21-25", "gender": "male", "education": "master", "country": "Italy", "ai-experience": "2", "mode": "debug", "condition": 0, "engagement": "7", "difficulty": "5"}, "trialData": {"rt": 3138, "hit": "141_g_0.html", "trial": 72, "response_speaker": "Machine", "machine_groundtruth": "other", "imageID": 141, "caption": "kindred", "counterbalance": 0, "groundtruth": "machine", "phase": "TEST", "human_groundtruth": ""}}, "Trial_43": {"workerID": "debugfHSKc", "workerData": {"native": "yes", "age": "21-25", "gender": "male", "education": "master", "country": "Italy", "ai-experience": "2", "mode": "debug", "condition": 0, "engagement": "7", "difficulty": "5"}, "trialData": {"rt": 1988, "hit": "69_g_0.html", "trial": 80, "response_speaker": "Machine", "machine_groundtruth": "other", "imageID": 69, "caption": "cancer", "counterbalance": 0, "groundtruth": "machine", "phase": "TEST", "human_groundtruth": ""}}, "Trial_44": {"workerID": "debugfHSKc", "workerData": {"native": "yes", "age": "21-25", "gender": "male", "education": "master", "country": "Italy", "ai-experience": "2", "mode": "debug", "condition": 0, "engagement": "7", "difficulty": "5"}, "trialData": {"rt": 3001, "hit": "69_a_2.html", "trial": 81, "response_speaker": "Human", "machine_groundtruth": "", "imageID": 69, "caption": "cancer", "counterbalance": 0, "groundtruth": "human", "phase": "TEST", "human_groundtruth": "human"}}, "Trial_45": {"workerID": "debugfHSKc", "workerData": {"native": "yes", "age": "21-25", "gender": "male", "education": "master", "country": "Italy", "ai-experience": "2", "mode": "debug", "condition": 0, "engagement": "7", "difficulty": "5"}, "trialData": {"rt": 4113, "hit": "41_f_0.html", "trial": 82, "response_speaker": "Machine", "machine_groundtruth": "gpt3 (prompt davinvci)", "imageID": 41, "caption": "schematic", "counterbalance": 0, "groundtruth": "machine", "phase": "TEST", "human_groundtruth": ""}}, "Trial_46": {"workerID": "debugfHSKc", "workerData": {"native": "yes", "age": "21-25", "gender": "male", "education": "master", "country": "Italy", "ai-experience": "2", "mode": "debug", "condition": 0, "engagement": "7", "difficulty": "5"}, "trialData": {"rt": 4151, "hit": "60_d_0.html", "trial": 85, "response_speaker": "Human", "machine_groundtruth": "gpt3 (embedding)", "imageID": 60, "caption": "revelation", "counterbalance": 0, "groundtruth": "machine", "phase": "TEST", "human_groundtruth": ""}}, "Trial_47": {"workerID": "debugfHSKc", "workerData": {"native": "yes", "age": "21-25", "gender": "male", "education": "master", "country": "Italy", "ai-experience": "2", "mode": "debug", "condition": 0, "engagement": "7", "difficulty": "5"}, "trialData": {"rt": 2619, "hit": "135_g_0.html", "trial": 86, "response_speaker": "Machine", "machine_groundtruth": "other", "imageID": 135, "caption": "quantify", "counterbalance": 0, "groundtruth": "machine", "phase": "TEST", "human_groundtruth": ""}}, "Trial_48": {"workerID": "debugfHSKc", "workerData": {"native": "yes", "age": "21-25", "gender": "male", "education": "master", "country": "Italy", "ai-experience": "2", "mode": "debug", "condition": 0, "engagement": "7", "difficulty": "5"}, "trialData": {"rt": 91606, "hit": "131_c_0.html", "trial": 87, "response_speaker": "Human", "machine_groundtruth": "gpt2", "imageID": 131, "caption": "bloodshed", "counterbalance": 0, "groundtruth": "machine", "phase": "TEST", "human_groundtruth": ""}}, "Trial_49": {"workerID": "debugfHSKc", "workerData": {"native": "yes", "age": "21-25", "gender": "male", "education": "master", "country": "Italy", "ai-experience": "2", "mode": "debug", "condition": 0, "engagement": "7", "difficulty": "5"}, "trialData": {"rt": 82110, "hit": "123_e_0.html", "trial": 88, "response_speaker": "Machine", "machine_groundtruth": "gpt3 (prompt curie)", "imageID": 123, "caption": "watershed", "counterbalance": 0, "groundtruth": "machine", "phase": "TEST", "human_groundtruth": ""}}, "Trial_50": {"workerID": "debugfHSKc", "workerData": {"native": "yes", "age": "21-25", "gender": "male", "education": "master", "country": "Italy", "ai-experience": "2", "mode": "debug", "condition": 0, "engagement": "7", "difficulty": "5"}, "trialData": {"rt": 25965, "hit": "39_a_3.html", "trial": 90, "response_speaker": "Machine", "machine_groundtruth": "", "imageID": 39, "caption": "revolutionary", "counterbalance": 0, "groundtruth": "human", "phase": "TEST", "human_groundtruth": "human"}}, "Trial_51": {"workerID": "debugXMU0L", "workerData": {"native": "yes", "age": "21-25", "gender": "female", "education": "high school", "country": "United States", "ai-experience": "2", "mode": "debug", "condition": 0, "engagement": "5", "difficulty": "5"}, "trialData": {"rt": 2765, "hit": "19_a_1.html", "trial": 2, "response_speaker": "Human", "machine_groundtruth": "", "imageID": 19, "caption": "exclusive", "counterbalance": 0, "groundtruth": "human", "phase": "TEST", "human_groundtruth": "human"}}, "Trial_52": {"workerID": "debugXMU0L", "workerData": {"native": "yes", "age": "21-25", "gender": "female", "education": "high school", "country": "United States", "ai-experience": "2", "mode": "debug", "condition": 0, "engagement": "5", "difficulty": "5"}, "trialData": {"rt": 4533, "hit": "111_f_0.html", "trial": 3, "response_speaker": "Human", "machine_groundtruth": "gpt3 (prompt davinvci)", "imageID": 111, "caption": "ping", "counterbalance": 0, "groundtruth": "machine", "phase": "TEST", "human_groundtruth": ""}}, "Trial_53": {"workerID": "debugXMU0L", "workerData": {"native": "yes", "age": "21-25", "gender": "female", "education": "high school", "country": "United States", "ai-experience": "2", "mode": "debug", "condition": 0, "engagement": "5", "difficulty": "5"}, "trialData": {"rt": 4233, "hit": "43_a_1.html", "trial": 4, "response_speaker": "Machine", "machine_groundtruth": "", "imageID": 43, "caption": "nationwide", "counterbalance": 0, "groundtruth": "human", "phase": "TEST", "human_groundtruth": "human"}}, "Trial_54": {"workerID": "debugXMU0L", "workerData": {"native": "yes", "age": "21-25", "gender": "female", "education": "high school", "country": "United States", "ai-experience": "2", "mode": "debug", "condition": 0, "engagement": "5", "difficulty": "5"}, "trialData": {"rt": 8168, "hit": "7_e_0.html", "trial": 6, "response_speaker": "Machine", "machine_groundtruth": "gpt3 (prompt curie)", "imageID": 7, "caption": "credible", "counterbalance": 0, "groundtruth": "machine", "phase": "TEST", "human_groundtruth": ""}}, "Trial_55": {"workerID": "debugXMU0L", "workerData": {"native": "yes", "age": "21-25", "gender": "female", "education": "high school", "country": "United States", "ai-experience": "2", "mode": "debug", "condition": 0, "engagement": "5", "difficulty": "5"}, "trialData": {"rt": 4098, "hit": "11_a_4.html", "trial": 7, "response_speaker": "Human", "machine_groundtruth": "", "imageID": 11, "caption": "technician", "counterbalance": 0, "groundtruth": "human", "phase": "TEST", "human_groundtruth": "human"}}, "Trial_56": {"workerID": "debugXMU0L", "workerData": {"native": "yes", "age": "21-25", "gender": "female", "education": "high school", "country": "United States", "ai-experience": "2", "mode": "debug", "condition": 0, "engagement": "5", "difficulty": "5"}, "trialData": {"rt": 4100, "hit": "5_a_3.html", "trial": 11, "response_speaker": "Human", "machine_groundtruth": "", "imageID": 5, "caption": "nepal", "counterbalance": 0, "groundtruth": "human", "phase": "TEST", "human_groundtruth": "human"}}, "Trial_57": {"workerID": "debugXMU0L", "workerData": {"native": "yes", "age": "21-25", "gender": "female", "education": "high school", "country": "United States", "ai-experience": "2", "mode": "debug", "condition": 0, "engagement": "5", "difficulty": "5"}, "trialData": {"rt": 3016, "hit": "139_a_3.html", "trial": 13, "response_speaker": "Human", "machine_groundtruth": "", "imageID": 139, "caption": "deepen", "counterbalance": 0, "groundtruth": "human", "phase": "TEST", "human_groundtruth": "human"}}, "Trial_58": {"workerID": "debugXMU0L", "workerData": {"native": "yes", "age": "21-25", "gender": "female", "education": "high school", "country": "United States", "ai-experience": "2", "mode": "debug", "condition": 0, "engagement": "5", "difficulty": "5"}, "trialData": {"rt": 3450, "hit": "79_a_4.html", "trial": 14, "response_speaker": "Human", "machine_groundtruth": "", "imageID": 79, "caption": "blunt", "counterbalance": 0, "groundtruth": "human", "phase": "TEST", "human_groundtruth": "human"}}, "Trial_59": {"workerID": "debugXMU0L", "workerData": {"native": "yes", "age": "21-25", "gender": "female", "education": "high school", "country": "United States", "ai-experience": "2", "mode": "debug", "condition": 0, "engagement": "5", "difficulty": "5"}, "trialData": {"rt": 2783, "hit": "28_c_0.html", "trial": 15, "response_speaker": "Machine", "machine_groundtruth": "gpt2", "imageID": 28, "caption": "pascal", "counterbalance": 0, "groundtruth": "machine", "phase": "TEST", "human_groundtruth": ""}}, "Trial_60": {"workerID": "debugXMU0L", "workerData": {"native": "yes", "age": "21-25", "gender": "female", "education": "high school", "country": "United States", "ai-experience": "2", "mode": "debug", "condition": 0, "engagement": "5", "difficulty": "5"}, "trialData": {"rt": 2816, "hit": "37_c_0.html", "trial": 16, "response_speaker": "Human", "machine_groundtruth": "gpt2", "imageID": 37, "caption": "intangible", "counterbalance": 0, "groundtruth": "machine", "phase": "TEST", "human_groundtruth": ""}}, "Trial_61": {"workerID": "debugXMU0L", "workerData": {"native": "yes", "age": "21-25", "gender": "female", "education": "high school", "country": "United States", "ai-experience": "2", "mode": "debug", "condition": 0, "engagement": "5", "difficulty": "5"}, "trialData": {"rt": 4049, "hit": "99_a_3.html", "trial": 17, "response_speaker": "Human", "machine_groundtruth": "", "imageID": 99, "caption": "prototype", "counterbalance": 0, "groundtruth": "human", "phase": "TEST", "human_groundtruth": "human"}}, "Trial_62": {"workerID": "debugXMU0L", "workerData": {"native": "yes", "age": "21-25", "gender": "female", "education": "high school", "country": "United States", "ai-experience": "2", "mode": "debug", "condition": 0, "engagement": "5", "difficulty": "5"}, "trialData": {"rt": 3399, "hit": "30_g_0.html", "trial": 21, "response_speaker": "Human", "machine_groundtruth": "other", "imageID": 30, "caption": "ingenious", "counterbalance": 0, "groundtruth": "machine", "phase": "TEST", "human_groundtruth": ""}}, "Trial_63": {"workerID": "debugXMU0L", "workerData": {"native": "yes", "age": "21-25", "gender": "female", "education": "high school", "country": "United States", "ai-experience": "2", "mode": "debug", "condition": 0, "engagement": "5", "difficulty": "5"}, "trialData": {"rt": 8216, "hit": "91_a_4.html", "trial": 22, "response_speaker": "Machine", "machine_groundtruth": "", "imageID": 91, "caption": "brighton", "counterbalance": 0, "groundtruth": "human", "phase": "TEST", "human_groundtruth": "human"}}, "Trial_64": {"workerID": "debugXMU0L", "workerData": {"native": "yes", "age": "21-25", "gender": "female", "education": "high school", "country": "United States", "ai-experience": "2", "mode": "debug", "condition": 0, "engagement": "5", "difficulty": "5"}, "trialData": {"rt": 3799, "hit": "119_c_0.html", "trial": 24, "response_speaker": "Machine", "machine_groundtruth": "gpt2", "imageID": 119, "caption": "assume", "counterbalance": 0, "groundtruth": "machine", "phase": "TEST", "human_groundtruth": ""}}, "Trial_65": {"workerID": "debugXMU0L", "workerData": {"native": "yes", "age": "21-25", "gender": "female", "education": "high school", "country": "United States", "ai-experience": "2", "mode": "debug", "condition": 0, "engagement": "5", "difficulty": "5"}, "trialData": {"rt": 2351, "hit": "145_d_0.html", "trial": 27, "response_speaker": "Human", "machine_groundtruth": "gpt3 (embedding)", "imageID": 145, "caption": "have", "counterbalance": 0, "groundtruth": "machine", "phase": "TEST", "human_groundtruth": ""}}, "Trial_66": {"workerID": "debugXMU0L", "workerData": {"native": "yes", "age": "21-25", "gender": "female", "education": "high school", "country": "United States", "ai-experience": "2", "mode": "debug", "condition": 0, "engagement": "5", "difficulty": "5"}, "trialData": {"rt": 4350, "hit": "88_c_0.html", "trial": 28, "response_speaker": "Machine", "machine_groundtruth": "gpt2", "imageID": 88, "caption": "curtain", "counterbalance": 0, "groundtruth": "machine", "phase": "TEST", "human_groundtruth": ""}}, "Trial_67": {"workerID": "debugXMU0L", "workerData": {"native": "yes", "age": "21-25", "gender": "female", "education": "high school", "country": "United States", "ai-experience": "2", "mode": "debug", "condition": 0, "engagement": "5", "difficulty": "5"}, "trialData": {"rt": 2532, "hit": "21_a_4.html", "trial": 29, "response_speaker": "Human", "machine_groundtruth": "", "imageID": 21, "caption": "presidential", "counterbalance": 0, "groundtruth": "human", "phase": "TEST", "human_groundtruth": "human"}}, "Trial_68": {"workerID": "debugXMU0L", "workerData": {"native": "yes", "age": "21-25", "gender": "female", "education": "high school", "country": "United States", "ai-experience": "2", "mode": "debug", "condition": 0, "engagement": "5", "difficulty": "5"}, "trialData": {"rt": 2516, "hit": "65_g_0.html", "trial": 33, "response_speaker": "Human", "machine_groundtruth": "other", "imageID": 65, "caption": "zombie", "counterbalance": 0, "groundtruth": "machine", "phase": "TEST", "human_groundtruth": ""}}, "Trial_69": {"workerID": "debugXMU0L", "workerData": {"native": "yes", "age": "21-25", "gender": "female", "education": "high school", "country": "United States", "ai-experience": "2", "mode": "debug", "condition": 0, "engagement": "5", "difficulty": "5"}, "trialData": {"rt": 3550, "hit": "131_b_0.html", "trial": 34, "response_speaker": "Machine", "machine_groundtruth": "word2vec", "imageID": 131, "caption": "bloodshed", "counterbalance": 0, "groundtruth": "machine", "phase": "TEST", "human_groundtruth": ""}}, "Trial_70": {"workerID": "debugXMU0L", "workerData": {"native": "yes", "age": "21-25", "gender": "female", "education": "high school", "country": "United States", "ai-experience": "2", "mode": "debug", "condition": 0, "engagement": "5", "difficulty": "5"}, "trialData": {"rt": 2084, "hit": "85_a_1.html", "trial": 36, "response_speaker": "Human", "machine_groundtruth": "", "imageID": 85, "caption": "distinguish", "counterbalance": 0, "groundtruth": "human", "phase": "TEST", "human_groundtruth": "human"}}, "Trial_71": {"workerID": "debugXMU0L", "workerData": {"native": "yes", "age": "21-25", "gender": "female", "education": "high school", "country": "United States", "ai-experience": "2", "mode": "debug", "condition": 0, "engagement": "5", "difficulty": "5"}, "trialData": {"rt": 3451, "hit": "39_d_0.html", "trial": 38, "response_speaker": "Human", "machine_groundtruth": "gpt3 (embedding)", "imageID": 39, "caption": "revolutionary", "counterbalance": 0, "groundtruth": "machine", "phase": "TEST", "human_groundtruth": ""}}, "Trial_72": {"workerID": "debugXMU0L", "workerData": {"native": "yes", "age": "21-25", "gender": "female", "education": "high school", "country": "United States", "ai-experience": "2", "mode": "debug", "condition": 0, "engagement": "5", "difficulty": "5"}, "trialData": {"rt": 3535, "hit": "9_a_1.html", "trial": 40, "response_speaker": "Human", "machine_groundtruth": "", "imageID": 9, "caption": "oriental", "counterbalance": 0, "groundtruth": "human", "phase": "TEST", "human_groundtruth": "human"}}, "Trial_73": {"workerID": "debugXMU0L", "workerData": {"native": "yes", "age": "21-25", "gender": "female", "education": "high school", "country": "United States", "ai-experience": "2", "mode": "debug", "condition": 0, "engagement": "5", "difficulty": "5"}, "trialData": {"rt": 3265, "hit": "137_a_2.html", "trial": 41, "response_speaker": "Human", "machine_groundtruth": "", "imageID": 137, "caption": "fred", "counterbalance": 0, "groundtruth": "human", "phase": "TEST", "human_groundtruth": "human"}}, "Trial_74": {"workerID": "debugXMU0L", "workerData": {"native": "yes", "age": "21-25", "gender": "female", "education": "high school", "country": "United States", "ai-experience": "2", "mode": "debug", "condition": 0, "engagement": "5", "difficulty": "5"}, "trialData": {"rt": 5182, "hit": "74_a_2.html", "trial": 42, "response_speaker": "Machine", "machine_groundtruth": "", "imageID": 74, "caption": "nixon", "counterbalance": 0, "groundtruth": "human", "phase": "TEST", "human_groundtruth": "human"}}, "Trial_75": {"workerID": "debugXMU0L", "workerData": {"native": "yes", "age": "21-25", "gender": "female", "education": "high school", "country": "United States", "ai-experience": "2", "mode": "debug", "condition": 0, "engagement": "5", "difficulty": "5"}, "trialData": {"rt": 2218, "hit": "31_a_2.html", "trial": 43, "response_speaker": "Machine", "machine_groundtruth": "", "imageID": 31, "caption": "exponential", "counterbalance": 0, "groundtruth": "human", "phase": "TEST", "human_groundtruth": "human"}}, "Trial_76": {"workerID": "debugXMU0L", "workerData": {"native": "yes", "age": "21-25", "gender": "female", "education": "high school", "country": "United States", "ai-experience": "2", "mode": "debug", "condition": 0, "engagement": "5", "difficulty": "5"}, "trialData": {"rt": 6416, "hit": "119_a_4.html", "trial": 45, "response_speaker": "Machine", "machine_groundtruth": "", "imageID": 119, "caption": "assume", "counterbalance": 0, "groundtruth": "human", "phase": "TEST", "human_groundtruth": "human"}}, "Trial_77": {"workerID": "debugXMU0L", "workerData": {"native": "yes", "age": "21-25", "gender": "female", "education": "high school", "country": "United States", "ai-experience": "2", "mode": "debug", "condition": 0, "engagement": "5", "difficulty": "5"}, "trialData": {"rt": 2997, "hit": "9_b_0.html", "trial": 47, "response_speaker": "Machine", "machine_groundtruth": "word2vec", "imageID": 9, "caption": "oriental", "counterbalance": 0, "groundtruth": "machine", "phase": "TEST", "human_groundtruth": ""}}, "Trial_78": {"workerID": "debugXMU0L", "workerData": {"native": "yes", "age": "21-25", "gender": "female", "education": "high school", "country": "United States", "ai-experience": "2", "mode": "debug", "condition": 0, "engagement": "5", "difficulty": "5"}, "trialData": {"rt": 8033, "hit": "119_c_0.html", "trial": 48, "response_speaker": "Machine", "machine_groundtruth": "gpt2", "imageID": 119, "caption": "assume", "counterbalance": 0, "groundtruth": "machine", "phase": "TEST", "human_groundtruth": ""}}, "Trial_79": {"workerID": "debugXMU0L", "workerData": {"native": "yes", "age": "21-25", "gender": "female", "education": "high school", "country": "United States", "ai-experience": "2", "mode": "debug", "condition": 0, "engagement": "5", "difficulty": "5"}, "trialData": {"rt": 3282, "hit": "30_f_0.html", "trial": 49, "response_speaker": "Human", "machine_groundtruth": "gpt3 (prompt davinvci)", "imageID": 30, "caption": "ingenious", "counterbalance": 0, "groundtruth": "machine", "phase": "TEST", "human_groundtruth": ""}}, "Trial_80": {"workerID": "debugXMU0L", "workerData": {"native": "yes", "age": "21-25", "gender": "female", "education": "high school", "country": "United States", "ai-experience": "2", "mode": "debug", "condition": 0, "engagement": "5", "difficulty": "5"}, "trialData": {"rt": 6099, "hit": "137_f_0.html", "trial": 51, "response_speaker": "Human", "machine_groundtruth": "gpt3 (prompt davinvci)", "imageID": 137, "caption": "fred", "counterbalance": 0, "groundtruth": "machine", "phase": "TEST", "human_groundtruth": ""}}, "Trial_81": {"workerID": "debugXMU0L", "workerData": {"native": "yes", "age": "21-25", "gender": "female", "education": "high school", "country": "United States", "ai-experience": "2", "mode": "debug", "condition": 0, "engagement": "5", "difficulty": "5"}, "trialData": {"rt": 25399, "hit": "141_g_0.html", "trial": 53, "response_speaker": "Machine", "machine_groundtruth": "other", "imageID": 141, "caption": "kindred", "counterbalance": 0, "groundtruth": "machine", "phase": "TEST", "human_groundtruth": ""}}, "Trial_82": {"workerID": "debugXMU0L", "workerData": {"native": "yes", "age": "21-25", "gender": "female", "education": "high school", "country": "United States", "ai-experience": "2", "mode": "debug", "condition": 0, "engagement": "5", "difficulty": "5"}, "trialData": {"rt": 21635, "hit": "145_d_0.html", "trial": 54, "response_speaker": "Human", "machine_groundtruth": "gpt3 (embedding)", "imageID": 145, "caption": "have", "counterbalance": 0, "groundtruth": "machine", "phase": "TEST", "human_groundtruth": ""}}, "Trial_83": {"workerID": "debugXMU0L", "workerData": {"native": "yes", "age": "21-25", "gender": "female", "education": "high school", "country": "United States", "ai-experience": "2", "mode": "debug", "condition": 0, "engagement": "5", "difficulty": "5"}, "trialData": {"rt": 2182, "hit": "66_g_0.html", "trial": 55, "response_speaker": "Machine", "machine_groundtruth": "other", "imageID": 66, "caption": "battlefield", "counterbalance": 0, "groundtruth": "machine", "phase": "TEST", "human_groundtruth": ""}}, "Trial_84": {"workerID": "debugXMU0L", "workerData": {"native": "yes", "age": "21-25", "gender": "female", "education": "high school", "country": "United States", "ai-experience": "2", "mode": "debug", "condition": 0, "engagement": "5", "difficulty": "5"}, "trialData": {"rt": 10450, "hit": "88_c_0.html", "trial": 56, "response_speaker": "Machine", "machine_groundtruth": "gpt2", "imageID": 88, "caption": "curtain", "counterbalance": 0, "groundtruth": "machine", "phase": "TEST", "human_groundtruth": ""}}, "Trial_85": {"workerID": "debugXMU0L", "workerData": {"native": "yes", "age": "21-25", "gender": "female", "education": "high school", "country": "United States", "ai-experience": "2", "mode": "debug", "condition": 0, "engagement": "5", "difficulty": "5"}, "trialData": {"rt": 6333, "hit": "21_a_4.html", "trial": 58, "response_speaker": "Machine", "machine_groundtruth": "", "imageID": 21, "caption": "presidential", "counterbalance": 0, "groundtruth": "human", "phase": "TEST", "human_groundtruth": "human"}}, "Trial_86": {"workerID": "debugXMU0L", "workerData": {"native": "yes", "age": "21-25", "gender": "female", "education": "high school", "country": "United States", "ai-experience": "2", "mode": "debug", "condition": 0, "engagement": "5", "difficulty": "5"}, "trialData": {"rt": 2417, "hit": "3_g_0.html", "trial": 59, "response_speaker": "Machine", "machine_groundtruth": "other", "imageID": 3, "caption": "grand", "counterbalance": 0, "groundtruth": "machine", "phase": "TEST", "human_groundtruth": ""}}, "Trial_87": {"workerID": "debugXMU0L", "workerData": {"native": "yes", "age": "21-25", "gender": "female", "education": "high school", "country": "United States", "ai-experience": "2", "mode": "debug", "condition": 0, "engagement": "5", "difficulty": "5"}, "trialData": {"rt": 21032, "hit": "101_a_1.html", "trial": 61, "response_speaker": "Human", "machine_groundtruth": "", "imageID": 101, "caption": "expose", "counterbalance": 0, "groundtruth": "human", "phase": "TEST", "human_groundtruth": "human"}}, "Trial_88": {"workerID": "debugXMU0L", "workerData": {"native": "yes", "age": "21-25", "gender": "female", "education": "high school", "country": "United States", "ai-experience": "2", "mode": "debug", "condition": 0, "engagement": "5", "difficulty": "5"}, "trialData": {"rt": 8533, "hit": "60_a_0.html", "trial": 65, "response_speaker": "Human", "machine_groundtruth": "", "imageID": 60, "caption": "revelation", "counterbalance": 0, "groundtruth": "human", "phase": "TEST", "human_groundtruth": "human"}}, "Trial_89": {"workerID": "debugXMU0L", "workerData": {"native": "yes", "age": "21-25", "gender": "female", "education": "high school", "country": "United States", "ai-experience": "2", "mode": "debug", "condition": 0, "engagement": "5", "difficulty": "5"}, "trialData": {"rt": 8116, "hit": "65_g_0.html", "trial": 66, "response_speaker": "Machine", "machine_groundtruth": "other", "imageID": 65, "caption": "zombie", "counterbalance": 0, "groundtruth": "machine", "phase": "TEST", "human_groundtruth": ""}}, "Trial_90": {"workerID": "debugXMU0L", "workerData": {"native": "yes", "age": "21-25", "gender": "female", "education": "high school", "country": "United States", "ai-experience": "2", "mode": "debug", "condition": 0, "engagement": "5", "difficulty": "5"}, "trialData": {"rt": 12550, "hit": "131_b_0.html", "trial": 68, "response_speaker": "Machine", "machine_groundtruth": "word2vec", "imageID": 131, "caption": "bloodshed", "counterbalance": 0, "groundtruth": "machine", "phase": "TEST", "human_groundtruth": ""}}, "Trial_91": {"workerID": "debugXMU0L", "workerData": {"native": "yes", "age": "21-25", "gender": "female", "education": "high school", "country": "United States", "ai-experience": "2", "mode": "debug", "condition": 0, "engagement": "5", "difficulty": "5"}, "trialData": {"rt": 24835, "hit": "85_a_1.html", "trial": 72, "response_speaker": "Human", "machine_groundtruth": "", "imageID": 85, "caption": "distinguish", "counterbalance": 0, "groundtruth": "human", "phase": "TEST", "human_groundtruth": "human"}}, "Trial_92": {"workerID": "debugXMU0L", "workerData": {"native": "yes", "age": "21-25", "gender": "female", "education": "high school", "country": "United States", "ai-experience": "2", "mode": "debug", "condition": 0, "engagement": "5", "difficulty": "5"}, "trialData": {"rt": 32769, "hit": "53_a_0.html", "trial": 73, "response_speaker": "Machine", "machine_groundtruth": "", "imageID": 53, "caption": "stanford", "counterbalance": 0, "groundtruth": "human", "phase": "TEST", "human_groundtruth": "human"}}, "Trial_93": {"workerID": "debugXMU0L", "workerData": {"native": "yes", "age": "21-25", "gender": "female", "education": "high school", "country": "United States", "ai-experience": "2", "mode": "debug", "condition": 0, "engagement": "5", "difficulty": "5"}, "trialData": {"rt": 3516, "hit": "39_d_0.html", "trial": 76, "response_speaker": "Human", "machine_groundtruth": "gpt3 (embedding)", "imageID": 39, "caption": "revolutionary", "counterbalance": 0, "groundtruth": "machine", "phase": "TEST", "human_groundtruth": ""}}, "Trial_94": {"workerID": "debugXMU0L", "workerData": {"native": "yes", "age": "21-25", "gender": "female", "education": "high school", "country": "United States", "ai-experience": "2", "mode": "debug", "condition": 0, "engagement": "5", "difficulty": "5"}, "trialData": {"rt": 4301, "hit": "9_a_1.html", "trial": 80, "response_speaker": "Human", "machine_groundtruth": "", "imageID": 9, "caption": "oriental", "counterbalance": 0, "groundtruth": "human", "phase": "TEST", "human_groundtruth": "human"}}, "Trial_95": {"workerID": "debugXMU0L", "workerData": {"native": "yes", "age": "21-25", "gender": "female", "education": "high school", "country": "United States", "ai-experience": "2", "mode": "debug", "condition": 0, "engagement": "5", "difficulty": "5"}, "trialData": {"rt": 7767, "hit": "137_a_2.html", "trial": 82, "response_speaker": "Human", "machine_groundtruth": "", "imageID": 137, "caption": "fred", "counterbalance": 0, "groundtruth": "human", "phase": "TEST", "human_groundtruth": "human"}}, "Trial_96": {"workerID": "debugXMU0L", "workerData": {"native": "yes", "age": "21-25", "gender": "female", "education": "high school", "country": "United States", "ai-experience": "2", "mode": "debug", "condition": 0, "engagement": "5", "difficulty": "5"}, "trialData": {"rt": 2399, "hit": "74_a_2.html", "trial": 84, "response_speaker": "Human", "machine_groundtruth": "", "imageID": 74, "caption": "nixon", "counterbalance": 0, "groundtruth": "human", "phase": "TEST", "human_groundtruth": "human"}}, "Trial_97": {"workerID": "debugXMU0L", "workerData": {"native": "yes", "age": "21-25", "gender": "female", "education": "high school", "country": "United States", "ai-experience": "2", "mode": "debug", "condition": 0, "engagement": "5", "difficulty": "5"}, "trialData": {"rt": 4516, "hit": "31_a_2.html", "trial": 86, "response_speaker": "Human", "machine_groundtruth": "", "imageID": 31, "caption": "exponential", "counterbalance": 0, "groundtruth": "human", "phase": "TEST", "human_groundtruth": "human"}}, "Trial_98": {"workerID": "debugXMU0L", "workerData": {"native": "yes", "age": "21-25", "gender": "female", "education": "high school", "country": "United States", "ai-experience": "2", "mode": "debug", "condition": 0, "engagement": "5", "difficulty": "5"}, "trialData": {"rt": 40883, "hit": "64_e_0.html", "trial": 87, "response_speaker": "Human", "machine_groundtruth": "gpt3 (prompt curie)", "imageID": 64, "caption": "oppose", "counterbalance": 0, "groundtruth": "machine", "phase": "TEST", "human_groundtruth": ""}}, "Trial_99": {"workerID": "debugXMU0L", "workerData": {"native": "yes", "age": "21-25", "gender": "female", "education": "high school", "country": "United States", "ai-experience": "2", "mode": "debug", "condition": 0, "engagement": "5", "difficulty": "5"}, "trialData": {"rt": 28249, "hit": "119_a_4.html", "trial": 90, "response_speaker": "Human", "machine_groundtruth": "", "imageID": 119, "caption": "assume", "counterbalance": 0, "groundtruth": "human", "phase": "TEST", "human_groundtruth": "human"}}, "Trial_100": {"workerID": "debugIUbD6", "workerData": {"native": "yes", "age": "26-30", "gender": "male", "education": "master", "country": "Pakistan", "ai-experience": "3", "mode": "debug", "condition": 0, "engagement": "3", "difficulty": "7"}, "trialData": {"rt": 8689, "hit": "147_a_3.html", "trial": 3, "response_speaker": "Machine", "machine_groundtruth": "", "imageID": 147, "caption": "make", "counterbalance": 0, "groundtruth": "human", "phase": "TEST", "human_groundtruth": "human"}}, "Trial_101": {"workerID": "debugIUbD6", "workerData": {"native": "yes", "age": "26-30", "gender": "male", "education": "master", "country": "Pakistan", "ai-experience": "3", "mode": "debug", "condition": 0, "engagement": "3", "difficulty": "7"}, "trialData": {"rt": 8514, "hit": "26_a_3.html", "trial": 5, "response_speaker": "Human", "machine_groundtruth": "", "imageID": 26, "caption": "ordinary", "counterbalance": 0, "groundtruth": "human", "phase": "TEST", "human_groundtruth": "human"}}, "Trial_102": {"workerID": "debugIUbD6", "workerData": {"native": "yes", "age": "26-30", "gender": "male", "education": "master", "country": "Pakistan", "ai-experience": "3", "mode": "debug", "condition": 0, "engagement": "3", "difficulty": "7"}, "trialData": {"rt": 5466, "hit": "120_f_0.html", "trial": 8, "response_speaker": "Human", "machine_groundtruth": "gpt3 (prompt davinvci)", "imageID": 120, "caption": "identify", "counterbalance": 0, "groundtruth": "machine", "phase": "TEST", "human_groundtruth": ""}}, "Trial_103": {"workerID": "debugIUbD6", "workerData": {"native": "yes", "age": "26-30", "gender": "male", "education": "master", "country": "Pakistan", "ai-experience": "3", "mode": "debug", "condition": 0, "engagement": "3", "difficulty": "7"}, "trialData": {"rt": 4879, "hit": "43_a_2.html", "trial": 9, "response_speaker": "Human", "machine_groundtruth": "", "imageID": 43, "caption": "nationwide", "counterbalance": 0, "groundtruth": "human", "phase": "TEST", "human_groundtruth": "human"}}, "Trial_104": {"workerID": "debugIUbD6", "workerData": {"native": "yes", "age": "26-30", "gender": "male", "education": "master", "country": "Pakistan", "ai-experience": "3", "mode": "debug", "condition": 0, "engagement": "3", "difficulty": "7"}, "trialData": {"rt": 8942, "hit": "58_f_0.html", "trial": 10, "response_speaker": "Machine", "machine_groundtruth": "gpt3 (prompt davinvci)", "imageID": 58, "caption": "dame", "counterbalance": 0, "groundtruth": "machine", "phase": "TEST", "human_groundtruth": ""}}, "Trial_105": {"workerID": "debugIUbD6", "workerData": {"native": "yes", "age": "26-30", "gender": "male", "education": "master", "country": "Pakistan", "ai-experience": "3", "mode": "debug", "condition": 0, "engagement": "3", "difficulty": "7"}, "trialData": {"rt": 17108, "hit": "58_e_0.html", "trial": 11, "response_speaker": "Human", "machine_groundtruth": "gpt3 (prompt curie)", "imageID": 58, "caption": "dame", "counterbalance": 0, "groundtruth": "machine", "phase": "TEST", "human_groundtruth": ""}}, "Trial_106": {"workerID": "debugIUbD6", "workerData": {"native": "yes", "age": "26-30", "gender": "male", "education": "master", "country": "Pakistan", "ai-experience": "3", "mode": "debug", "condition": 0, "engagement": "3", "difficulty": "7"}, "trialData": {"rt": 9563, "hit": "121_a_1.html", "trial": 12, "response_speaker": "Human", "machine_groundtruth": "", "imageID": 121, "caption": "aforementioned", "counterbalance": 0, "groundtruth": "human", "phase": "TEST", "human_groundtruth": "human"}}, "Trial_107": {"workerID": "debugIUbD6", "workerData": {"native": "yes", "age": "26-30", "gender": "male", "education": "master", "country": "Pakistan", "ai-experience": "3", "mode": "debug", "condition": 0, "engagement": "3", "difficulty": "7"}, "trialData": {"rt": 2890, "hit": "5_a_3.html", "trial": 13, "response_speaker": "Machine", "machine_groundtruth": "", "imageID": 5, "caption": "nepal", "counterbalance": 0, "groundtruth": "human", "phase": "TEST", "human_groundtruth": "human"}}, "Trial_108": {"workerID": "debugIUbD6", "workerData": {"native": "yes", "age": "26-30", "gender": "male", "education": "master", "country": "Pakistan", "ai-experience": "3", "mode": "debug", "condition": 0, "engagement": "3", "difficulty": "7"}, "trialData": {"rt": 12084, "hit": "129_a_0.html", "trial": 14, "response_speaker": "Human", "machine_groundtruth": "", "imageID": 129, "caption": "settle", "counterbalance": 0, "groundtruth": "human", "phase": "TEST", "human_groundtruth": "human"}}, "Trial_109": {"workerID": "debugIUbD6", "workerData": {"native": "yes", "age": "26-30", "gender": "male", "education": "master", "country": "Pakistan", "ai-experience": "3", "mode": "debug", "condition": 0, "engagement": "3", "difficulty": "7"}, "trialData": {"rt": 17020, "hit": "48_c_0.html", "trial": 16, "response_speaker": "Machine", "machine_groundtruth": "gpt2", "imageID": 48, "caption": "military", "counterbalance": 0, "groundtruth": "machine", "phase": "TEST", "human_groundtruth": ""}}, "Trial_110": {"workerID": "debugIUbD6", "workerData": {"native": "yes", "age": "26-30", "gender": "male", "education": "master", "country": "Pakistan", "ai-experience": "3", "mode": "debug", "condition": 0, "engagement": "3", "difficulty": "7"}, "trialData": {"rt": 5031, "hit": "23_c_0.html", "trial": 18, "response_speaker": "Machine", "machine_groundtruth": "gpt2", "imageID": 23, "caption": "impressive", "counterbalance": 0, "groundtruth": "machine", "phase": "TEST", "human_groundtruth": ""}}, "Trial_111": {"workerID": "debugIUbD6", "workerData": {"native": "yes", "age": "26-30", "gender": "male", "education": "master", "country": "Pakistan", "ai-experience": "3", "mode": "debug", "condition": 0, "engagement": "3", "difficulty": "7"}, "trialData": {"rt": 43544, "hit": "145_c_0.html", "trial": 21, "response_speaker": "Machine", "machine_groundtruth": "gpt2", "imageID": 145, "caption": "have", "counterbalance": 0, "groundtruth": "machine", "phase": "TEST", "human_groundtruth": ""}}, "Trial_112": {"workerID": "debugIUbD6", "workerData": {"native": "yes", "age": "26-30", "gender": "male", "education": "master", "country": "Pakistan", "ai-experience": "3", "mode": "debug", "condition": 0, "engagement": "3", "difficulty": "7"}, "trialData": {"rt": 7445, "hit": "9_f_0.html", "trial": 23, "response_speaker": "Human", "machine_groundtruth": "gpt3 (prompt davinvci)", "imageID": 9, "caption": "oriental", "counterbalance": 0, "groundtruth": "machine", "phase": "TEST", "human_groundtruth": ""}}, "Trial_113": {"workerID": "debugIUbD6", "workerData": {"native": "yes", "age": "26-30", "gender": "male", "education": "master", "country": "Pakistan", "ai-experience": "3", "mode": "debug", "condition": 0, "engagement": "3", "difficulty": "7"}, "trialData": {"rt": 5431, "hit": "91_g_0.html", "trial": 25, "response_speaker": "Machine", "machine_groundtruth": "other", "imageID": 91, "caption": "brighton", "counterbalance": 0, "groundtruth": "machine", "phase": "TEST", "human_groundtruth": ""}}, "Trial_114": {"workerID": "debugIUbD6", "workerData": {"native": "yes", "age": "26-30", "gender": "male", "education": "master", "country": "Pakistan", "ai-experience": "3", "mode": "debug", "condition": 0, "engagement": "3", "difficulty": "7"}, "trialData": {"rt": 4569, "hit": "31_a_3.html", "trial": 27, "response_speaker": "Machine", "machine_groundtruth": "", "imageID": 31, "caption": "exponential", "counterbalance": 0, "groundtruth": "human", "phase": "TEST", "human_groundtruth": "human"}}, "Trial_115": {"workerID": "debugIUbD6", "workerData": {"native": "yes", "age": "26-30", "gender": "male", "education": "master", "country": "Pakistan", "ai-experience": "3", "mode": "debug", "condition": 0, "engagement": "3", "difficulty": "7"}, "trialData": {"rt": 3909, "hit": "123_e_0.html", "trial": 29, "response_speaker": "Machine", "machine_groundtruth": "gpt3 (prompt curie)", "imageID": 123, "caption": "watershed", "counterbalance": 0, "groundtruth": "machine", "phase": "TEST", "human_groundtruth": ""}}, "Trial_116": {"workerID": "debugIUbD6", "workerData": {"native": "yes", "age": "26-30", "gender": "male", "education": "master", "country": "Pakistan", "ai-experience": "3", "mode": "debug", "condition": 0, "engagement": "3", "difficulty": "7"}, "trialData": {"rt": 3308, "hit": "88_a_4.html", "trial": 30, "response_speaker": "Human", "machine_groundtruth": "", "imageID": 88, "caption": "curtain", "counterbalance": 0, "groundtruth": "human", "phase": "TEST", "human_groundtruth": "human"}}, "Trial_117": {"workerID": "debugIUbD6", "workerData": {"native": "yes", "age": "26-30", "gender": "male", "education": "master", "country": "Pakistan", "ai-experience": "3", "mode": "debug", "condition": 0, "engagement": "3", "difficulty": "7"}, "trialData": {"rt": 8410, "hit": "137_a_2.html", "trial": 31, "response_speaker": "Human", "machine_groundtruth": "", "imageID": 137, "caption": "fred", "counterbalance": 0, "groundtruth": "human", "phase": "TEST", "human_groundtruth": "human"}}, "Trial_118": {"workerID": "debugIUbD6", "workerData": {"native": "yes", "age": "26-30", "gender": "male", "education": "master", "country": "Pakistan", "ai-experience": "3", "mode": "debug", "condition": 0, "engagement": "3", "difficulty": "7"}, "trialData": {"rt": 6601, "hit": "110_g_0.html", "trial": 33, "response_speaker": "Machine", "machine_groundtruth": "other", "imageID": 110, "caption": "improve", "counterbalance": 0, "groundtruth": "machine", "phase": "TEST", "human_groundtruth": ""}}, "Trial_119": {"workerID": "debugIUbD6", "workerData": {"native": "yes", "age": "26-30", "gender": "male", "education": "master", "country": "Pakistan", "ai-experience": "3", "mode": "debug", "condition": 0, "engagement": "3", "difficulty": "7"}, "trialData": {"rt": 16636, "hit": "74_b_0.html", "trial": 35, "response_speaker": "Human", "machine_groundtruth": "word2vec", "imageID": 74, "caption": "nixon", "counterbalance": 0, "groundtruth": "machine", "phase": "TEST", "human_groundtruth": ""}}, "Trial_120": {"workerID": "debugIUbD6", "workerData": {"native": "yes", "age": "26-30", "gender": "male", "education": "master", "country": "Pakistan", "ai-experience": "3", "mode": "debug", "condition": 0, "engagement": "3", "difficulty": "7"}, "trialData": {"rt": 6050, "hit": "85_g_0.html", "trial": 36, "response_speaker": "Machine", "machine_groundtruth": "other", "imageID": 85, "caption": "distinguish", "counterbalance": 0, "groundtruth": "machine", "phase": "TEST", "human_groundtruth": ""}}, "Trial_121": {"workerID": "debugIUbD6", "workerData": {"native": "yes", "age": "26-30", "gender": "male", "education": "master", "country": "Pakistan", "ai-experience": "3", "mode": "debug", "condition": 0, "engagement": "3", "difficulty": "7"}, "trialData": {"rt": 4212, "hit": "149_d_0.html", "trial": 41, "response_speaker": "Human", "machine_groundtruth": "gpt3 (embedding)", "imageID": 149, "caption": "come", "counterbalance": 0, "groundtruth": "machine", "phase": "TEST", "human_groundtruth": ""}}, "Trial_122": {"workerID": "debugIUbD6", "workerData": {"native": "yes", "age": "26-30", "gender": "male", "education": "master", "country": "Pakistan", "ai-experience": "3", "mode": "debug", "condition": 0, "engagement": "3", "difficulty": "7"}, "trialData": {"rt": 12183, "hit": "9_f_0.html", "trial": 46, "response_speaker": "Human", "machine_groundtruth": "gpt3 (prompt davinvci)", "imageID": 9, "caption": "oriental", "counterbalance": 0, "groundtruth": "machine", "phase": "TEST", "human_groundtruth": ""}}, "Trial_123": {"workerID": "debugIUbD6", "workerData": {"native": "yes", "age": "26-30", "gender": "male", "education": "master", "country": "Pakistan", "ai-experience": "3", "mode": "debug", "condition": 0, "engagement": "3", "difficulty": "7"}, "trialData": {"rt": 5748, "hit": "52_d_0.html", "trial": 47, "response_speaker": "Human", "machine_groundtruth": "gpt3 (embedding)", "imageID": 52, "caption": "negotiate", "counterbalance": 0, "groundtruth": "machine", "phase": "TEST", "human_groundtruth": ""}}, "Trial_124": {"workerID": "debugIUbD6", "workerData": {"native": "yes", "age": "26-30", "gender": "male", "education": "master", "country": "Pakistan", "ai-experience": "3", "mode": "debug", "condition": 0, "engagement": "3", "difficulty": "7"}, "trialData": {"rt": 5307, "hit": "104_a_4.html", "trial": 49, "response_speaker": "Human", "machine_groundtruth": "", "imageID": 104, "caption": "slow", "counterbalance": 0, "groundtruth": "human", "phase": "TEST", "human_groundtruth": "human"}}, "Trial_125": {"workerID": "debugIUbD6", "workerData": {"native": "yes", "age": "26-30", "gender": "male", "education": "master", "country": "Pakistan", "ai-experience": "3", "mode": "debug", "condition": 0, "engagement": "3", "difficulty": "7"}, "trialData": {"rt": 7761, "hit": "91_g_0.html", "trial": 50, "response_speaker": "Human", "machine_groundtruth": "other", "imageID": 91, "caption": "brighton", "counterbalance": 0, "groundtruth": "machine", "phase": "TEST", "human_groundtruth": ""}}, "Trial_126": {"workerID": "debugIUbD6", "workerData": {"native": "yes", "age": "26-30", "gender": "male", "education": "master", "country": "Pakistan", "ai-experience": "3", "mode": "debug", "condition": 0, "engagement": "3", "difficulty": "7"}, "trialData": {"rt": 9232, "hit": "92_g_0.html", "trial": 51, "response_speaker": "Machine", "machine_groundtruth": "other", "imageID": 92, "caption": "constitute", "counterbalance": 0, "groundtruth": "machine", "phase": "TEST", "human_groundtruth": ""}}, "Trial_127": {"workerID": "debugIUbD6", "workerData": {"native": "yes", "age": "26-30", "gender": "male", "education": "master", "country": "Pakistan", "ai-experience": "3", "mode": "debug", "condition": 0, "engagement": "3", "difficulty": "7"}, "trialData": {"rt": 5255, "hit": "31_a_3.html", "trial": 54, "response_speaker": "Human", "machine_groundtruth": "", "imageID": 31, "caption": "exponential", "counterbalance": 0, "groundtruth": "human", "phase": "TEST", "human_groundtruth": "human"}}, "Trial_128": {"workerID": "debugIUbD6", "workerData": {"native": "yes", "age": "26-30", "gender": "male", "education": "master", "country": "Pakistan", "ai-experience": "3", "mode": "debug", "condition": 0, "engagement": "3", "difficulty": "7"}, "trialData": {"rt": 8637, "hit": "95_c_0.html", "trial": 55, "response_speaker": "Machine", "machine_groundtruth": "gpt2", "imageID": 95, "caption": "wendy", "counterbalance": 0, "groundtruth": "machine", "phase": "TEST", "human_groundtruth": ""}}, "Trial_129": {"workerID": "debugIUbD6", "workerData": {"native": "yes", "age": "26-30", "gender": "male", "education": "master", "country": "Pakistan", "ai-experience": "3", "mode": "debug", "condition": 0, "engagement": "3", "difficulty": "7"}, "trialData": {"rt": 391998, "hit": "123_e_0.html", "trial": 58, "response_speaker": "Machine", "machine_groundtruth": "gpt3 (prompt curie)", "imageID": 123, "caption": "watershed", "counterbalance": 0, "groundtruth": "machine", "phase": "TEST", "human_groundtruth": ""}}, "Trial_130": {"workerID": "debugIUbD6", "workerData": {"native": "yes", "age": "26-30", "gender": "male", "education": "master", "country": "Pakistan", "ai-experience": "3", "mode": "debug", "condition": 0, "engagement": "3", "difficulty": "7"}, "trialData": {"rt": 30576, "hit": "69_g_0.html", "trial": 59, "response_speaker": "Human", "machine_groundtruth": "other", "imageID": 69, "caption": "cancer", "counterbalance": 0, "groundtruth": "machine", "phase": "TEST", "human_groundtruth": ""}}, "Trial_131": {"workerID": "debugIUbD6", "workerData": {"native": "yes", "age": "26-30", "gender": "male", "education": "master", "country": "Pakistan", "ai-experience": "3", "mode": "debug", "condition": 0, "engagement": "3", "difficulty": "7"}, "trialData": {"rt": 4028, "hit": "88_a_4.html", "trial": 60, "response_speaker": "Machine", "machine_groundtruth": "", "imageID": 88, "caption": "curtain", "counterbalance": 0, "groundtruth": "human", "phase": "TEST", "human_groundtruth": "human"}}, "Trial_132": {"workerID": "debugIUbD6", "workerData": {"native": "yes", "age": "26-30", "gender": "male", "education": "master", "country": "Pakistan", "ai-experience": "3", "mode": "debug", "condition": 0, "engagement": "3", "difficulty": "7"}, "trialData": {"rt": 5282, "hit": "137_a_2.html", "trial": 62, "response_speaker": "Human", "machine_groundtruth": "", "imageID": 137, "caption": "fred", "counterbalance": 0, "groundtruth": "human", "phase": "TEST", "human_groundtruth": "human"}}, "Trial_133": {"workerID": "debugIUbD6", "workerData": {"native": "yes", "age": "26-30", "gender": "male", "education": "master", "country": "Pakistan", "ai-experience": "3", "mode": "debug", "condition": 0, "engagement": "3", "difficulty": "7"}, "trialData": {"rt": 6245, "hit": "132_a_2.html", "trial": 65, "response_speaker": "Human", "machine_groundtruth": "", "imageID": 132, "caption": "succeed", "counterbalance": 0, "groundtruth": "human", "phase": "TEST", "human_groundtruth": "human"}}, "Trial_134": {"workerID": "debugIUbD6", "workerData": {"native": "yes", "age": "26-30", "gender": "male", "education": "master", "country": "Pakistan", "ai-experience": "3", "mode": "debug", "condition": 0, "engagement": "3", "difficulty": "7"}, "trialData": {"rt": 4140, "hit": "110_g_0.html", "trial": 66, "response_speaker": "Machine", "machine_groundtruth": "other", "imageID": 110, "caption": "improve", "counterbalance": 0, "groundtruth": "machine", "phase": "TEST", "human_groundtruth": ""}}, "Trial_135": {"workerID": "debugIUbD6", "workerData": {"native": "yes", "age": "26-30", "gender": "male", "education": "master", "country": "Pakistan", "ai-experience": "3", "mode": "debug", "condition": 0, "engagement": "3", "difficulty": "7"}, "trialData": {"rt": 6421, "hit": "119_c_0.html", "trial": 67, "response_speaker": "Human", "machine_groundtruth": "gpt2", "imageID": 119, "caption": "assume", "counterbalance": 0, "groundtruth": "machine", "phase": "TEST", "human_groundtruth": ""}}, "Trial_136": {"workerID": "debugIUbD6", "workerData": {"native": "yes", "age": "26-30", "gender": "male", "education": "master", "country": "Pakistan", "ai-experience": "3", "mode": "debug", "condition": 0, "engagement": "3", "difficulty": "7"}, "trialData": {"rt": 5125, "hit": "74_b_0.html", "trial": 70, "response_speaker": "Machine", "machine_groundtruth": "word2vec", "imageID": 74, "caption": "nixon", "counterbalance": 0, "groundtruth": "machine", "phase": "TEST", "human_groundtruth": ""}}, "Trial_137": {"workerID": "debugIUbD6", "workerData": {"native": "yes", "age": "26-30", "gender": "male", "education": "master", "country": "Pakistan", "ai-experience": "3", "mode": "debug", "condition": 0, "engagement": "3", "difficulty": "7"}, "trialData": {"rt": 6151, "hit": "92_a_3.html", "trial": 71, "response_speaker": "Human", "machine_groundtruth": "", "imageID": 92, "caption": "constitute", "counterbalance": 0, "groundtruth": "human", "phase": "TEST", "human_groundtruth": "human"}}, "Trial_138": {"workerID": "debugIUbD6", "workerData": {"native": "yes", "age": "26-30", "gender": "male", "education": "master", "country": "Pakistan", "ai-experience": "3", "mode": "debug", "condition": 0, "engagement": "3", "difficulty": "7"}, "trialData": {"rt": 2770, "hit": "85_g_0.html", "trial": 72, "response_speaker": "Machine", "machine_groundtruth": "other", "imageID": 85, "caption": "distinguish", "counterbalance": 0, "groundtruth": "machine", "phase": "TEST", "human_groundtruth": ""}}, "Trial_139": {"workerID": "debugIUbD6", "workerData": {"native": "yes", "age": "26-30", "gender": "male", "education": "master", "country": "Pakistan", "ai-experience": "3", "mode": "debug", "condition": 0, "engagement": "3", "difficulty": "7"}, "trialData": {"rt": 5698, "hit": "91_b_0.html", "trial": 75, "response_speaker": "Machine", "machine_groundtruth": "word2vec", "imageID": 91, "caption": "brighton", "counterbalance": 0, "groundtruth": "machine", "phase": "TEST", "human_groundtruth": ""}}, "Trial_140": {"workerID": "debugIUbD6", "workerData": {"native": "yes", "age": "26-30", "gender": "male", "education": "master", "country": "Pakistan", "ai-experience": "3", "mode": "debug", "condition": 0, "engagement": "3", "difficulty": "7"}, "trialData": {"rt": 3123, "hit": "123_g_0.html", "trial": 77, "response_speaker": "Machine", "machine_groundtruth": "other", "imageID": 123, "caption": "watershed", "counterbalance": 0, "groundtruth": "machine", "phase": "TEST", "human_groundtruth": ""}}, "Trial_141": {"workerID": "debugIUbD6", "workerData": {"native": "yes", "age": "26-30", "gender": "male", "education": "master", "country": "Pakistan", "ai-experience": "3", "mode": "debug", "condition": 0, "engagement": "3", "difficulty": "7"}, "trialData": {"rt": 13466, "hit": "60_a_3.html", "trial": 79, "response_speaker": "Human", "machine_groundtruth": "", "imageID": 60, "caption": "revelation", "counterbalance": 0, "groundtruth": "human", "phase": "TEST", "human_groundtruth": "human"}}, "Trial_142": {"workerID": "debugIUbD6", "workerData": {"native": "yes", "age": "26-30", "gender": "male", "education": "master", "country": "Pakistan", "ai-experience": "3", "mode": "debug", "condition": 0, "engagement": "3", "difficulty": "7"}, "trialData": {"rt": 2498, "hit": "104_g_0.html", "trial": 81, "response_speaker": "Machine", "machine_groundtruth": "other", "imageID": 104, "caption": "slow", "counterbalance": 0, "groundtruth": "machine", "phase": "TEST", "human_groundtruth": ""}}, "Trial_143": {"workerID": "debugIUbD6", "workerData": {"native": "yes", "age": "26-30", "gender": "male", "education": "master", "country": "Pakistan", "ai-experience": "3", "mode": "debug", "condition": 0, "engagement": "3", "difficulty": "7"}, "trialData": {"rt": 3799, "hit": "149_d_0.html", "trial": 82, "response_speaker": "Human", "machine_groundtruth": "gpt3 (embedding)", "imageID": 149, "caption": "come", "counterbalance": 0, "groundtruth": "machine", "phase": "TEST", "human_groundtruth": ""}}, "Trial_144": {"workerID": "debugIUbD6", "workerData": {"native": "yes", "age": "26-30", "gender": "male", "education": "master", "country": "Pakistan", "ai-experience": "3", "mode": "debug", "condition": 0, "engagement": "3", "difficulty": "7"}, "trialData": {"rt": 6888, "hit": "104_f_0.html", "trial": 89, "response_speaker": "Human", "machine_groundtruth": "gpt3 (prompt davinvci)", "imageID": 104, "caption": "slow", "counterbalance": 0, "groundtruth": "machine", "phase": "TEST", "human_groundtruth": ""}}, "Trial_145": {"workerID": "debugMTpGW", "workerData": {"native": "yes", "age": "21-25", "gender": "male", "education": "master", "country": "India", "ai-experience": "3", "mode": "debug", "condition": 0, "engagement": "5", "difficulty": "5"}, "trialData": {"rt": 6968, "hit": "112_a_1.html", "trial": 3, "response_speaker": "Human", "machine_groundtruth": "", "imageID": 112, "caption": "develop", "counterbalance": 0, "groundtruth": "human", "phase": "TEST", "human_groundtruth": "human"}}, "Trial_146": {"workerID": "debugMTpGW", "workerData": {"native": "yes", "age": "21-25", "gender": "male", "education": "master", "country": "India", "ai-experience": "3", "mode": "debug", "condition": 0, "engagement": "5", "difficulty": "5"}, "trialData": {"rt": 11582, "hit": "24_c_0.html", "trial": 7, "response_speaker": "Machine", "machine_groundtruth": "gpt2", "imageID": 24, "caption": "ridiculous", "counterbalance": 0, "groundtruth": "machine", "phase": "TEST", "human_groundtruth": ""}}, "Trial_147": {"workerID": "debugMTpGW", "workerData": {"native": "yes", "age": "21-25", "gender": "male", "education": "master", "country": "India", "ai-experience": "3", "mode": "debug", "condition": 0, "engagement": "5", "difficulty": "5"}, "trialData": {"rt": 16418, "hit": "97_a_3.html", "trial": 8, "response_speaker": "Machine", "machine_groundtruth": "", "imageID": 97, "caption": "entertain", "counterbalance": 0, "groundtruth": "human", "phase": "TEST", "human_groundtruth": "human"}}, "Trial_148": {"workerID": "debugMTpGW", "workerData": {"native": "yes", "age": "21-25", "gender": "male", "education": "master", "country": "India", "ai-experience": "3", "mode": "debug", "condition": 0, "engagement": "5", "difficulty": "5"}, "trialData": {"rt": 5949, "hit": "121_f_0.html", "trial": 11, "response_speaker": "Human", "machine_groundtruth": "gpt3 (prompt davinvci)", "imageID": 121, "caption": "aforementioned", "counterbalance": 0, "groundtruth": "machine", "phase": "TEST", "human_groundtruth": ""}}, "Trial_149": {"workerID": "debugMTpGW", "workerData": {"native": "yes", "age": "21-25", "gender": "male", "education": "master", "country": "India", "ai-experience": "3", "mode": "debug", "condition": 0, "engagement": "5", "difficulty": "5"}, "trialData": {"rt": 4853, "hit": "46_a_4.html", "trial": 13, "response_speaker": "Human", "machine_groundtruth": "", "imageID": 46, "caption": "able", "counterbalance": 0, "groundtruth": "human", "phase": "TEST", "human_groundtruth": "human"}}, "Trial_150": {"workerID": "debugMTpGW", "workerData": {"native": "yes", "age": "21-25", "gender": "male", "education": "master", "country": "India", "ai-experience": "3", "mode": "debug", "condition": 0, "engagement": "5", "difficulty": "5"}, "trialData": {"rt": 13685, "hit": "99_e_0.html", "trial": 16, "response_speaker": "Human", "machine_groundtruth": "gpt3 (prompt curie)", "imageID": 99, "caption": "prototype", "counterbalance": 0, "groundtruth": "machine", "phase": "TEST", "human_groundtruth": ""}}, "Trial_151": {"workerID": "debugMTpGW", "workerData": {"native": "yes", "age": "21-25", "gender": "male", "education": "master", "country": "India", "ai-experience": "3", "mode": "debug", "condition": 0, "engagement": "5", "difficulty": "5"}, "trialData": {"rt": 5151, "hit": "27_a_1.html", "trial": 18, "response_speaker": "Human", "machine_groundtruth": "", "imageID": 27, "caption": "obnoxious", "counterbalance": 0, "groundtruth": "human", "phase": "TEST", "human_groundtruth": "human"}}, "Trial_152": {"workerID": "debugMTpGW", "workerData": {"native": "yes", "age": "21-25", "gender": "male", "education": "master", "country": "India", "ai-experience": "3", "mode": "debug", "condition": 0, "engagement": "5", "difficulty": "5"}, "trialData": {"rt": 7681, "hit": "19_a_0.html", "trial": 19, "response_speaker": "Human", "machine_groundtruth": "", "imageID": 19, "caption": "exclusive", "counterbalance": 0, "groundtruth": "human", "phase": "TEST", "human_groundtruth": "human"}}, "Trial_153": {"workerID": "debugMTpGW", "workerData": {"native": "yes", "age": "21-25", "gender": "male", "education": "master", "country": "India", "ai-experience": "3", "mode": "debug", "condition": 0, "engagement": "5", "difficulty": "5"}, "trialData": {"rt": 6934, "hit": "73_b_0.html", "trial": 20, "response_speaker": "Human", "machine_groundtruth": "word2vec", "imageID": 73, "caption": "ammunition", "counterbalance": 0, "groundtruth": "machine", "phase": "TEST", "human_groundtruth": ""}}, "Trial_154": {"workerID": "debugMTpGW", "workerData": {"native": "yes", "age": "21-25", "gender": "male", "education": "master", "country": "India", "ai-experience": "3", "mode": "debug", "condition": 0, "engagement": "5", "difficulty": "5"}, "trialData": {"rt": 10930, "hit": "42_a_4.html", "trial": 22, "response_speaker": "Machine", "machine_groundtruth": "", "imageID": 42, "caption": "suspicious", "counterbalance": 0, "groundtruth": "human", "phase": "TEST", "human_groundtruth": "human"}}, "Trial_155": {"workerID": "debugMTpGW", "workerData": {"native": "yes", "age": "21-25", "gender": "male", "education": "master", "country": "India", "ai-experience": "3", "mode": "debug", "condition": 0, "engagement": "5", "difficulty": "5"}, "trialData": {"rt": 8381, "hit": "149_a_4.html", "trial": 24, "response_speaker": "Human", "machine_groundtruth": "", "imageID": 149, "caption": "come", "counterbalance": 0, "groundtruth": "human", "phase": "TEST", "human_groundtruth": "human"}}, "Trial_156": {"workerID": "debugMTpGW", "workerData": {"native": "yes", "age": "21-25", "gender": "male", "education": "master", "country": "India", "ai-experience": "3", "mode": "debug", "condition": 0, "engagement": "5", "difficulty": "5"}, "trialData": {"rt": 3965, "hit": "95_a_1.html", "trial": 25, "response_speaker": "Human", "machine_groundtruth": "", "imageID": 95, "caption": "wendy", "counterbalance": 0, "groundtruth": "human", "phase": "TEST", "human_groundtruth": "human"}}, "Trial_157": {"workerID": "debugMTpGW", "workerData": {"native": "yes", "age": "21-25", "gender": "male", "education": "master", "country": "India", "ai-experience": "3", "mode": "debug", "condition": 0, "engagement": "5", "difficulty": "5"}, "trialData": {"rt": 4218, "hit": "63_a_2.html", "trial": 27, "response_speaker": "Human", "machine_groundtruth": "", "imageID": 63, "caption": "material", "counterbalance": 0, "groundtruth": "human", "phase": "TEST", "human_groundtruth": "human"}}, "Trial_158": {"workerID": "debugMTpGW", "workerData": {"native": "yes", "age": "21-25", "gender": "male", "education": "master", "country": "India", "ai-experience": "3", "mode": "debug", "condition": 0, "engagement": "5", "difficulty": "5"}, "trialData": {"rt": 4763, "hit": "85_g_0.html", "trial": 28, "response_speaker": "Machine", "machine_groundtruth": "other", "imageID": 85, "caption": "distinguish", "counterbalance": 0, "groundtruth": "machine", "phase": "TEST", "human_groundtruth": ""}}, "Trial_159": {"workerID": "debugMTpGW", "workerData": {"native": "yes", "age": "21-25", "gender": "male", "education": "master", "country": "India", "ai-experience": "3", "mode": "debug", "condition": 0, "engagement": "5", "difficulty": "5"}, "trialData": {"rt": 8269, "hit": "31_g_0.html", "trial": 29, "response_speaker": "Human", "machine_groundtruth": "other", "imageID": 31, "caption": "exponential", "counterbalance": 0, "groundtruth": "machine", "phase": "TEST", "human_groundtruth": ""}}, "Trial_160": {"workerID": "debugMTpGW", "workerData": {"native": "yes", "age": "21-25", "gender": "male", "education": "master", "country": "India", "ai-experience": "3", "mode": "debug", "condition": 0, "engagement": "5", "difficulty": "5"}, "trialData": {"rt": 7381, "hit": "78_a_0.html", "trial": 31, "response_speaker": "Human", "machine_groundtruth": "", "imageID": 78, "caption": "peanut", "counterbalance": 0, "groundtruth": "human", "phase": "TEST", "human_groundtruth": "human"}}, "Trial_161": {"workerID": "debugMTpGW", "workerData": {"native": "yes", "age": "21-25", "gender": "male", "education": "master", "country": "India", "ai-experience": "3", "mode": "debug", "condition": 0, "engagement": "5", "difficulty": "5"}, "trialData": {"rt": 5592, "hit": "9_b_0.html", "trial": 32, "response_speaker": "Machine", "machine_groundtruth": "word2vec", "imageID": 9, "caption": "oriental", "counterbalance": 0, "groundtruth": "machine", "phase": "TEST", "human_groundtruth": ""}}, "Trial_162": {"workerID": "debugMTpGW", "workerData": {"native": "yes", "age": "21-25", "gender": "male", "education": "master", "country": "India", "ai-experience": "3", "mode": "debug", "condition": 0, "engagement": "5", "difficulty": "5"}, "trialData": {"rt": 4254, "hit": "102_d_0.html", "trial": 33, "response_speaker": "Human", "machine_groundtruth": "gpt3 (embedding)", "imageID": 102, "caption": "impose", "counterbalance": 0, "groundtruth": "machine", "phase": "TEST", "human_groundtruth": ""}}, "Trial_163": {"workerID": "debugMTpGW", "workerData": {"native": "yes", "age": "21-25", "gender": "male", "education": "master", "country": "India", "ai-experience": "3", "mode": "debug", "condition": 0, "engagement": "5", "difficulty": "5"}, "trialData": {"rt": 5800, "hit": "135_e_0.html", "trial": 34, "response_speaker": "Human", "machine_groundtruth": "gpt3 (prompt curie)", "imageID": 135, "caption": "quantify", "counterbalance": 0, "groundtruth": "machine", "phase": "TEST", "human_groundtruth": ""}}, "Trial_164": {"workerID": "debugMTpGW", "workerData": {"native": "yes", "age": "21-25", "gender": "male", "education": "master", "country": "India", "ai-experience": "3", "mode": "debug", "condition": 0, "engagement": "5", "difficulty": "5"}, "trialData": {"rt": 9449, "hit": "64_a_4.html", "trial": 37, "response_speaker": "Machine", "machine_groundtruth": "", "imageID": 64, "caption": "oppose", "counterbalance": 0, "groundtruth": "human", "phase": "TEST", "human_groundtruth": "human"}}, "Trial_165": {"workerID": "debugMTpGW", "workerData": {"native": "yes", "age": "21-25", "gender": "male", "education": "master", "country": "India", "ai-experience": "3", "mode": "debug", "condition": 0, "engagement": "5", "difficulty": "5"}, "trialData": {"rt": 5947, "hit": "136_a_1.html", "trial": 38, "response_speaker": "Human", "machine_groundtruth": "", "imageID": 136, "caption": "sacred", "counterbalance": 0, "groundtruth": "human", "phase": "TEST", "human_groundtruth": "human"}}, "Trial_166": {"workerID": "debugMTpGW", "workerData": {"native": "yes", "age": "21-25", "gender": "male", "education": "master", "country": "India", "ai-experience": "3", "mode": "debug", "condition": 0, "engagement": "5", "difficulty": "5"}, "trialData": {"rt": 5483, "hit": "0_b_0.html", "trial": 41, "response_speaker": "Human", "machine_groundtruth": "word2vec", "imageID": 0, "caption": "memorable", "counterbalance": 0, "groundtruth": "machine", "phase": "TEST", "human_groundtruth": ""}}, "Trial_167": {"workerID": "debugMTpGW", "workerData": {"native": "yes", "age": "21-25", "gender": "male", "education": "master", "country": "India", "ai-experience": "3", "mode": "debug", "condition": 0, "engagement": "5", "difficulty": "5"}, "trialData": {"rt": 7715, "hit": "92_c_0.html", "trial": 42, "response_speaker": "Human", "machine_groundtruth": "gpt2", "imageID": 92, "caption": "constitute", "counterbalance": 0, "groundtruth": "machine", "phase": "TEST", "human_groundtruth": ""}}, "Trial_168": {"workerID": "debugMTpGW", "workerData": {"native": "yes", "age": "21-25", "gender": "male", "education": "master", "country": "India", "ai-experience": "3", "mode": "debug", "condition": 0, "engagement": "5", "difficulty": "5"}, "trialData": {"rt": 5116, "hit": "30_e_0.html", "trial": 44, "response_speaker": "Human", "machine_groundtruth": "gpt3 (prompt curie)", "imageID": 30, "caption": "ingenious", "counterbalance": 0, "groundtruth": "machine", "phase": "TEST", "human_groundtruth": ""}}, "Trial_169": {"workerID": "debugMTpGW", "workerData": {"native": "yes", "age": "21-25", "gender": "male", "education": "master", "country": "India", "ai-experience": "3", "mode": "debug", "condition": 0, "engagement": "5", "difficulty": "5"}, "trialData": {"rt": 15864, "hit": "102_a_3.html", "trial": 45, "response_speaker": "Human", "machine_groundtruth": "", "imageID": 102, "caption": "impose", "counterbalance": 0, "groundtruth": "human", "phase": "TEST", "human_groundtruth": "human"}}, "Trial_170": {"workerID": "debugMTpGW", "workerData": {"native": "yes", "age": "21-25", "gender": "male", "education": "master", "country": "India", "ai-experience": "3", "mode": "debug", "condition": 0, "engagement": "5", "difficulty": "5"}, "trialData": {"rt": 5882, "hit": "149_a_4.html", "trial": 48, "response_speaker": "Human", "machine_groundtruth": "", "imageID": 149, "caption": "come", "counterbalance": 0, "groundtruth": "human", "phase": "TEST", "human_groundtruth": "human"}}, "Trial_171": {"workerID": "debugMTpGW", "workerData": {"native": "yes", "age": "21-25", "gender": "male", "education": "master", "country": "India", "ai-experience": "3", "mode": "debug", "condition": 0, "engagement": "5", "difficulty": "5"}, "trialData": {"rt": 7166, "hit": "136_e_0.html", "trial": 49, "response_speaker": "Human", "machine_groundtruth": "gpt3 (prompt curie)", "imageID": 136, "caption": "sacred", "counterbalance": 0, "groundtruth": "machine", "phase": "TEST", "human_groundtruth": ""}}, "Trial_172": {"workerID": "debugMTpGW", "workerData": {"native": "yes", "age": "21-25", "gender": "male", "education": "master", "country": "India", "ai-experience": "3", "mode": "debug", "condition": 0, "engagement": "5", "difficulty": "5"}, "trialData": {"rt": 8150, "hit": "95_a_1.html", "trial": 50, "response_speaker": "Human", "machine_groundtruth": "", "imageID": 95, "caption": "wendy", "counterbalance": 0, "groundtruth": "human", "phase": "TEST", "human_groundtruth": "human"}}, "Trial_173": {"workerID": "debugMTpGW", "workerData": {"native": "yes", "age": "21-25", "gender": "male", "education": "master", "country": "India", "ai-experience": "3", "mode": "debug", "condition": 0, "engagement": "5", "difficulty": "5"}, "trialData": {"rt": 10100, "hit": "136_c_0.html", "trial": 51, "response_speaker": "Machine", "machine_groundtruth": "gpt2", "imageID": 136, "caption": "sacred", "counterbalance": 0, "groundtruth": "machine", "phase": "TEST", "human_groundtruth": ""}}, "Trial_174": {"workerID": "debugMTpGW", "workerData": {"native": "yes", "age": "21-25", "gender": "male", "education": "master", "country": "India", "ai-experience": "3", "mode": "debug", "condition": 0, "engagement": "5", "difficulty": "5"}, "trialData": {"rt": 6234, "hit": "63_a_2.html", "trial": 54, "response_speaker": "Human", "machine_groundtruth": "", "imageID": 63, "caption": "material", "counterbalance": 0, "groundtruth": "human", "phase": "TEST", "human_groundtruth": "human"}}, "Trial_175": {"workerID": "debugMTpGW", "workerData": {"native": "yes", "age": "21-25", "gender": "male", "education": "master", "country": "India", "ai-experience": "3", "mode": "debug", "condition": 0, "engagement": "5", "difficulty": "5"}, "trialData": {"rt": 13981, "hit": "38_e_0.html", "trial": 55, "response_speaker": "Human", "machine_groundtruth": "gpt3 (prompt curie)", "imageID": 38, "caption": "mammalian", "counterbalance": 0, "groundtruth": "machine", "phase": "TEST", "human_groundtruth": ""}}, "Trial_176": {"workerID": "debugMTpGW", "workerData": {"native": "yes", "age": "21-25", "gender": "male", "education": "master", "country": "India", "ai-experience": "3", "mode": "debug", "condition": 0, "engagement": "5", "difficulty": "5"}, "trialData": {"rt": 11483, "hit": "85_g_0.html", "trial": 56, "response_speaker": "Machine", "machine_groundtruth": "other", "imageID": 85, "caption": "distinguish", "counterbalance": 0, "groundtruth": "machine", "phase": "TEST", "human_groundtruth": ""}}, "Trial_177": {"workerID": "debugMTpGW", "workerData": {"native": "yes", "age": "21-25", "gender": "male", "education": "master", "country": "India", "ai-experience": "3", "mode": "debug", "condition": 0, "engagement": "5", "difficulty": "5"}, "trialData": {"rt": 13098, "hit": "74_g_0.html", "trial": 57, "response_speaker": "Machine", "machine_groundtruth": "other", "imageID": 74, "caption": "nixon", "counterbalance": 0, "groundtruth": "machine", "phase": "TEST", "human_groundtruth": ""}}, "Trial_178": {"workerID": "debugMTpGW", "workerData": {"native": "yes", "age": "21-25", "gender": "male", "education": "master", "country": "India", "ai-experience": "3", "mode": "debug", "condition": 0, "engagement": "5", "difficulty": "5"}, "trialData": {"rt": 9782, "hit": "31_g_0.html", "trial": 58, "response_speaker": "Machine", "machine_groundtruth": "other", "imageID": 31, "caption": "exponential", "counterbalance": 0, "groundtruth": "machine", "phase": "TEST", "human_groundtruth": ""}}, "Trial_179": {"workerID": "debugMTpGW", "workerData": {"native": "yes", "age": "21-25", "gender": "male", "education": "master", "country": "India", "ai-experience": "3", "mode": "debug", "condition": 0, "engagement": "5", "difficulty": "5"}, "trialData": {"rt": 7016, "hit": "52_a_2.html", "trial": 61, "response_speaker": "Human", "machine_groundtruth": "", "imageID": 52, "caption": "negotiate", "counterbalance": 0, "groundtruth": "human", "phase": "TEST", "human_groundtruth": "human"}}, "Trial_180": {"workerID": "debugMTpGW", "workerData": {"native": "yes", "age": "21-25", "gender": "male", "education": "master", "country": "India", "ai-experience": "3", "mode": "debug", "condition": 0, "engagement": "5", "difficulty": "5"}, "trialData": {"rt": 12900, "hit": "78_a_0.html", "trial": 62, "response_speaker": "Human", "machine_groundtruth": "", "imageID": 78, "caption": "peanut", "counterbalance": 0, "groundtruth": "human", "phase": "TEST", "human_groundtruth": "human"}}, "Trial_181": {"workerID": "debugMTpGW", "workerData": {"native": "yes", "age": "21-25", "gender": "male", "education": "master", "country": "India", "ai-experience": "3", "mode": "debug", "condition": 0, "engagement": "5", "difficulty": "5"}, "trialData": {"rt": 14197, "hit": "38_g_0.html", "trial": 63, "response_speaker": "Machine", "machine_groundtruth": "other", "imageID": 38, "caption": "mammalian", "counterbalance": 0, "groundtruth": "machine", "phase": "TEST", "human_groundtruth": ""}}, "Trial_182": {"workerID": "debugMTpGW", "workerData": {"native": "yes", "age": "21-25", "gender": "male", "education": "master", "country": "India", "ai-experience": "3", "mode": "debug", "condition": 0, "engagement": "5", "difficulty": "5"}, "trialData": {"rt": 7564, "hit": "9_b_0.html", "trial": 64, "response_speaker": "Human", "machine_groundtruth": "word2vec", "imageID": 9, "caption": "oriental", "counterbalance": 0, "groundtruth": "machine", "phase": "TEST", "human_groundtruth": ""}}, "Trial_183": {"workerID": "debugMTpGW", "workerData": {"native": "yes", "age": "21-25", "gender": "male", "education": "master", "country": "India", "ai-experience": "3", "mode": "debug", "condition": 0, "engagement": "5", "difficulty": "5"}, "trialData": {"rt": 9600, "hit": "30_a_1.html", "trial": 65, "response_speaker": "Human", "machine_groundtruth": "", "imageID": 30, "caption": "ingenious", "counterbalance": 0, "groundtruth": "human", "phase": "TEST", "human_groundtruth": "human"}}, "Trial_184": {"workerID": "debugMTpGW", "workerData": {"native": "yes", "age": "21-25", "gender": "male", "education": "master", "country": "India", "ai-experience": "3", "mode": "debug", "condition": 0, "engagement": "5", "difficulty": "5"}, "trialData": {"rt": 4033, "hit": "102_d_0.html", "trial": 66, "response_speaker": "Machine", "machine_groundtruth": "gpt3 (embedding)", "imageID": 102, "caption": "impose", "counterbalance": 0, "groundtruth": "machine", "phase": "TEST", "human_groundtruth": ""}}, "Trial_185": {"workerID": "debugMTpGW", "workerData": {"native": "yes", "age": "21-25", "gender": "male", "education": "master", "country": "India", "ai-experience": "3", "mode": "debug", "condition": 0, "engagement": "5", "difficulty": "5"}, "trialData": {"rt": 9213, "hit": "60_a_4.html", "trial": 67, "response_speaker": "Human", "machine_groundtruth": "", "imageID": 60, "caption": "revelation", "counterbalance": 0, "groundtruth": "human", "phase": "TEST", "human_groundtruth": "human"}}, "Trial_186": {"workerID": "debugMTpGW", "workerData": {"native": "yes", "age": "21-25", "gender": "male", "education": "master", "country": "India", "ai-experience": "3", "mode": "debug", "condition": 0, "engagement": "5", "difficulty": "5"}, "trialData": {"rt": 9667, "hit": "135_e_0.html", "trial": 68, "response_speaker": "Human", "machine_groundtruth": "gpt3 (prompt curie)", "imageID": 135, "caption": "quantify", "counterbalance": 0, "groundtruth": "machine", "phase": "TEST", "human_groundtruth": ""}}, "Trial_187": {"workerID": "debugMTpGW", "workerData": {"native": "yes", "age": "21-25", "gender": "male", "education": "master", "country": "India", "ai-experience": "3", "mode": "debug", "condition": 0, "engagement": "5", "difficulty": "5"}, "trialData": {"rt": 6298, "hit": "9_a_3.html", "trial": 69, "response_speaker": "Machine", "machine_groundtruth": "", "imageID": 9, "caption": "oriental", "counterbalance": 0, "groundtruth": "human", "phase": "TEST", "human_groundtruth": "human"}}, "Trial_188": {"workerID": "debugMTpGW", "workerData": {"native": "yes", "age": "21-25", "gender": "male", "education": "master", "country": "India", "ai-experience": "3", "mode": "debug", "condition": 0, "engagement": "5", "difficulty": "5"}, "trialData": {"rt": 3481, "hit": "52_f_0.html", "trial": 71, "response_speaker": "Human", "machine_groundtruth": "gpt3 (prompt davinvci)", "imageID": 52, "caption": "negotiate", "counterbalance": 0, "groundtruth": "machine", "phase": "TEST", "human_groundtruth": ""}}, "Trial_189": {"workerID": "debugMTpGW", "workerData": {"native": "yes", "age": "21-25", "gender": "male", "education": "master", "country": "India", "ai-experience": "3", "mode": "debug", "condition": 0, "engagement": "5", "difficulty": "5"}, "trialData": {"rt": 3765, "hit": "64_a_4.html", "trial": 74, "response_speaker": "Human", "machine_groundtruth": "", "imageID": 64, "caption": "oppose", "counterbalance": 0, "groundtruth": "human", "phase": "TEST", "human_groundtruth": "human"}}, "Trial_190": {"workerID": "debugMTpGW", "workerData": {"native": "yes", "age": "21-25", "gender": "male", "education": "master", "country": "India", "ai-experience": "3", "mode": "debug", "condition": 0, "engagement": "5", "difficulty": "5"}, "trialData": {"rt": 14181, "hit": "136_a_1.html", "trial": 76, "response_speaker": "Machine", "machine_groundtruth": "", "imageID": 136, "caption": "sacred", "counterbalance": 0, "groundtruth": "human", "phase": "TEST", "human_groundtruth": "human"}}, "Trial_191": {"workerID": "debugMTpGW", "workerData": {"native": "yes", "age": "21-25", "gender": "male", "education": "master", "country": "India", "ai-experience": "3", "mode": "debug", "condition": 0, "engagement": "5", "difficulty": "5"}, "trialData": {"rt": 5250, "hit": "66_g_0.html", "trial": 77, "response_speaker": "Machine", "machine_groundtruth": "other", "imageID": 66, "caption": "battlefield", "counterbalance": 0, "groundtruth": "machine", "phase": "TEST", "human_groundtruth": ""}}, "Trial_192": {"workerID": "debugMTpGW", "workerData": {"native": "yes", "age": "21-25", "gender": "male", "education": "master", "country": "India", "ai-experience": "3", "mode": "debug", "condition": 0, "engagement": "5", "difficulty": "5"}, "trialData": {"rt": 25250, "hit": "9_d_0.html", "trial": 79, "response_speaker": "Human", "machine_groundtruth": "gpt3 (embedding)", "imageID": 9, "caption": "oriental", "counterbalance": 0, "groundtruth": "machine", "phase": "TEST", "human_groundtruth": ""}}, "Trial_193": {"workerID": "debugMTpGW", "workerData": {"native": "yes", "age": "21-25", "gender": "male", "education": "master", "country": "India", "ai-experience": "3", "mode": "debug", "condition": 0, "engagement": "5", "difficulty": "5"}, "trialData": {"rt": 9964, "hit": "0_b_0.html", "trial": 82, "response_speaker": "Human", "machine_groundtruth": "word2vec", "imageID": 0, "caption": "memorable", "counterbalance": 0, "groundtruth": "machine", "phase": "TEST", "human_groundtruth": ""}}, "Trial_194": {"workerID": "debugMTpGW", "workerData": {"native": "yes", "age": "21-25", "gender": "male", "education": "master", "country": "India", "ai-experience": "3", "mode": "debug", "condition": 0, "engagement": "5", "difficulty": "5"}, "trialData": {"rt": 10248, "hit": "69_a_2.html", "trial": 83, "response_speaker": "Human", "machine_groundtruth": "", "imageID": 69, "caption": "cancer", "counterbalance": 0, "groundtruth": "human", "phase": "TEST", "human_groundtruth": "human"}}, "Trial_195": {"workerID": "debugMTpGW", "workerData": {"native": "yes", "age": "21-25", "gender": "male", "education": "master", "country": "India", "ai-experience": "3", "mode": "debug", "condition": 0, "engagement": "5", "difficulty": "5"}, "trialData": {"rt": 25550, "hit": "92_c_0.html", "trial": 84, "response_speaker": "Human", "machine_groundtruth": "gpt2", "imageID": 92, "caption": "constitute", "counterbalance": 0, "groundtruth": "machine", "phase": "TEST", "human_groundtruth": ""}}, "Trial_196": {"workerID": "debugMTpGW", "workerData": {"native": "yes", "age": "21-25", "gender": "male", "education": "master", "country": "India", "ai-experience": "3", "mode": "debug", "condition": 0, "engagement": "5", "difficulty": "5"}, "trialData": {"rt": 9631, "hit": "65_g_0.html", "trial": 85, "response_speaker": "Machine", "machine_groundtruth": "other", "imageID": 65, "caption": "zombie", "counterbalance": 0, "groundtruth": "machine", "phase": "TEST", "human_groundtruth": ""}}, "Trial_197": {"workerID": "debugMTpGW", "workerData": {"native": "yes", "age": "21-25", "gender": "male", "education": "master", "country": "India", "ai-experience": "3", "mode": "debug", "condition": 0, "engagement": "5", "difficulty": "5"}, "trialData": {"rt": 12215, "hit": "67_a_3.html", "trial": 87, "response_speaker": "Human", "machine_groundtruth": "", "imageID": 67, "caption": "dodge", "counterbalance": 0, "groundtruth": "human", "phase": "TEST", "human_groundtruth": "human"}}, "Trial_198": {"workerID": "debugMTpGW", "workerData": {"native": "yes", "age": "21-25", "gender": "male", "education": "master", "country": "India", "ai-experience": "3", "mode": "debug", "condition": 0, "engagement": "5", "difficulty": "5"}, "trialData": {"rt": 48400, "hit": "30_e_0.html", "trial": 88, "response_speaker": "Human", "machine_groundtruth": "gpt3 (prompt curie)", "imageID": 30, "caption": "ingenious", "counterbalance": 0, "groundtruth": "machine", "phase": "TEST", "human_groundtruth": ""}}, "Trial_199": {"workerID": "debugMTpGW", "workerData": {"native": "yes", "age": "21-25", "gender": "male", "education": "master", "country": "India", "ai-experience": "3", "mode": "debug", "condition": 0, "engagement": "5", "difficulty": "5"}, "trialData": {"rt": 22102, "hit": "52_g_0.html", "trial": 89, "response_speaker": "Human", "machine_groundtruth": "other", "imageID": 52, "caption": "negotiate", "counterbalance": 0, "groundtruth": "machine", "phase": "TEST", "human_groundtruth": ""}}, "Trial_200": {"workerID": "debugMTpGW", "workerData": {"native": "yes", "age": "21-25", "gender": "male", "education": "master", "country": "India", "ai-experience": "3", "mode": "debug", "condition": 0, "engagement"