{"Trial_Color_1": {"workerID": "A2JPOXYZM5AJZZ", "workerData": {"country": "United States", "age": "51", "engagement": "6", "difficulty": "8", "mode": "live", "gender": "male", "education": "bachelor", "ai-experience": "1", "condition": 0, "native": "yes"}, "trialData": {"rt": 55480, "Aclass": "Human", "hit": "97", "imageID": "https://xiaoturing.s3.us-east-1.amazonaws.com/color_det/1150.jpg", "trial": 41, "page_name": "1150_a_0.html/", "phase": "TEST", "response_gender": "NA", "response_speaker": "human", "response_object": "2", "groundtruth": "human", "object_groundtruth": "1", "machine_groundtruth": "", "imgtype": "naturaldesign"}}, "Trial_Color_2": {"workerID": "A2JPOXYZM5AJZZ", "workerData": {"country": "United States", "age": "51", "engagement": "6", "difficulty": "8", "mode": "live", "gender": "male", "education": "bachelor", "ai-experience": "1", "condition": 0, "native": "yes"}, "trialData": {"rt": 10941, "Aclass": "Human", "hit": "510", "imageID": "https://xiaoturing.s3.us-east-1.amazonaws.com/color_det/1177.jpg", "trial": 42, "page_name": "1177_c_0.html/", "phase": "TEST", "response_gender": "NA", "response_speaker": "human", "response_object": "2", "groundtruth": "machine", "object_groundtruth": "1", "machine_groundtruth": "Histogram", "imgtype": "naturaldesign"}}, "Trial_Color_3": {"workerID": "A2JPOXYZM5AJZZ", "workerData": {"country": "United States", "age": "51", "engagement": "6", "difficulty": "8", "mode": "live", "gender": "male", "education": "bachelor", "ai-experience": "1", "condition": 0, "native": "yes"}, "trialData": {"rt": 9175, "Aclass": "Machine", "hit": "82", "imageID": "https://xiaoturing.s3.us-east-1.amazonaws.com/color_det/380.jpg", "trial": 43, "page_name": "380_d_0.html/", "phase": "TEST", "response_gender": "NA", "response_speaker": "machine", "response_object": "1", "groundtruth": "machine", "object_groundtruth": "0", "machine_groundtruth": "Google", "imgtype": "naturaldesign"}}, "Trial_Color_4": {"workerID": "A2JPOXYZM5AJZZ", "workerData": {"country": "United States", "age": "51", "engagement": "6", "difficulty": "8", "mode": "live", "gender": "male", "education": "bachelor", "ai-experience": "1", "condition": 0, "native": "yes"}, "trialData": {"rt": 12897, "Aclass": "Machine", "hit": "917", "imageID": "https://xiaoturing.s3.us-east-1.amazonaws.com/color_det/713.jpg", "trial": 44, "page_name": "713_a_0.html/", "phase": "TEST", "response_gender": "NA", "response_speaker": "machine", "response_object": "1", "groundtruth": "human", "object_groundtruth": "0", "machine_groundtruth": "", "imgtype": "naturaldesign"}}, "Trial_Color_5": {"workerID": "A2JPOXYZM5AJZZ", "workerData": {"country": "United States", "age": "51", "engagement": "6", "difficulty": "8", "mode": "live", "gender": "male", "education": "bachelor", "ai-experience": "1", "condition": 0, "native": "yes"}, "trialData": {"rt": 6012, "Aclass": "Machine", "hit": "761", "imageID": "https://xiaoturing.s3.us-east-1.amazonaws.com/color_det/312.jpg", "trial": 45, "page_name": "312_b_0.html/", "phase": "TEST", "response_gender": "NA", "response_speaker": "machine", "response_object": "1", "groundtruth": "machine", "object_groundtruth": "0", "machine_groundtruth": "Azure", "imgtype": "naturaldesign"}}, "Trial_Color_6": {"workerID": "A2JPOXYZM5AJZZ", "workerData": {"country": "United States", "age": "51", "engagement": "6", "difficulty": "8", "mode": "live", "gender": "male", "education": "bachelor", "ai-experience": "1", "condition": 0, "native": "yes"}, "trialData": {"rt": 9495, "Aclass": "Human", "hit": "402", "imageID": "https://xiaoturing.s3.us-east-1.amazonaws.com/color_det/463.jpg", "trial": 46, "page_name": "463_c_0.html/", "phase": "TEST", "response_gender": "NA", "response_speaker": "human", "response_object": "2", "groundtruth": "machine", "object_groundtruth": "1", "machine_groundtruth": "Histogram", "imgtype": "naturaldesign"}}, "Trial_Color_7": {"workerID": "A2JPOXYZM5AJZZ", "workerData": {"country": "United States", "age": "51", "engagement": "6", "difficulty": "8", "mode": "live", "gender": "male", "education": "bachelor", "ai-experience": "1", "condition": 0, "native": "yes"}, "trialData": {"rt": 10882, "Aclass": "Machine", "hit": "617", "imageID": "https://xiaoturing.s3.us-east-1.amazonaws.com/color_det/539.jpg", "trial": 47, "page_name": "539_a_0.html/", "phase": "TEST", "response_gender": "NA", "response_speaker": "machine", "response_object": "1", "groundtruth": "human", "object_groundtruth": "0", "machine_groundtruth": "", "imgtype": "naturaldesign"}}, "Trial_Color_8": {"workerID": "A2JPOXYZM5AJZZ", "workerData": {"country": "United States", "age": "51", "engagement": "6", "difficulty": "8", "mode": "live", "gender": "male", "education": "bachelor", "ai-experience": "1", "condition": 0, "native": "yes"}, "trialData": {"rt": 12098, "Aclass": "Machine", "hit": "311", "imageID": "https://xiaoturing.s3.us-east-1.amazonaws.com/color_det/768.jpg", "trial": 48, "page_name": "768_a_0.html/", "phase": "TEST", "response_gender": "NA", "response_speaker": "machine", "response_object": "2", "groundtruth": "human", "object_groundtruth": "1", "machine_groundtruth": "", "imgtype": "naturaldesign"}}, "Trial_Color_9": {"workerID": "A2JPOXYZM5AJZZ", "workerData": {"country": "United States", "age": "51", "engagement": "6", "difficulty": "8", "mode": "live", "gender": "male", "education": "bachelor", "ai-experience": "1", "condition": 0, "native": "yes"}, "trialData": {"rt": 12926, "Aclass": "Human", "hit": "800", "imageID": "https://xiaoturing.s3.us-east-1.amazonaws.com/color_det/440.jpg", "trial": 49, "page_name": "440_b_0.html/", "phase": "TEST", "response_gender": "NA", "response_speaker": "human", "response_object": "1", "groundtruth": "machine", "object_groundtruth": "0", "machine_groundtruth": "Azure", "imgtype": "naturaldesign"}}, "Trial_Color_10": {"workerID": "A2JPOXYZM5AJZZ", "workerData": {"country": "United States", "age": "51", "engagement": "6", "difficulty": "8", "mode": "live", "gender": "male", "education": "bachelor", "ai-experience": "1", "condition": 0, "native": "yes"}, "trialData": {"rt": 9545, "Aclass": "Human", "hit": "70", "imageID": "https://xiaoturing.s3.us-east-1.amazonaws.com/color_det/436.jpg", "trial": 50, "page_name": "436_a_0.html/", "phase": "TEST", "response_gender": "NA", "response_speaker": "human", "response_object": "1", "groundtruth": "human", "object_groundtruth": "1", "machine_groundtruth": "", "imgtype": "naturaldesign"}}, "Trial_Color_11": {"workerID": "A2JPOXYZM5AJZZ", "workerData": {"country": "United States", "age": "51", "engagement": "6", "difficulty": "8", "mode": "live", "gender": "male", "education": "bachelor", "ai-experience": "1", "condition": 0, "native": "yes"}, "trialData": {"rt": 8670, "Aclass": "Human", "imageID": "https://xiaoturing.s3.us-east-1.amazonaws.com/color_det/875.jpg", "trial": 51, "page_name": "875_d_0.html/", "phase": "TEST", "response_gender": "NA", "response_speaker": "human", "response_object": "1", "groundtruth": "machine", "object_groundtruth": "1", "machine_groundtruth": "Google", "imgtype": "naturaldesign"}}, "Trial_Color_12": {"workerID": "A2JPOXYZM5AJZZ", "workerData": {"country": "United States", "age": "51", "engagement": "6", "difficulty": "8", "mode": "live", "gender": "male", "education": "bachelor", "ai-experience": "1", "condition": 0, "native": "yes"}, "trialData": {"rt": 8160, "Aclass": "Human", "imageID": "https://xiaoturing.s3.us-east-1.amazonaws.com/color_det/42.jpg", "trial": 52, "page_name": "42_a_0.html/", "phase": "TEST", "response_gender": "NA", "response_speaker": "human", "response_object": "2", "groundtruth": "human", "object_groundtruth": "1", "machine_groundtruth": "", "imgtype": "naturaldesign"}}, "Trial_Color_13": {"workerID": "A2JPOXYZM5AJZZ", "workerData": {"country": "United States", "age": "51", "engagement": "6", "difficulty": "8", "mode": "live", "gender": "male", "education": "bachelor", "ai-experience": "1", "condition": 0, "native": "yes"}, "trialData": {"rt": 11476, "Aclass": "Human", "imageID": "https://xiaoturing.s3.us-east-1.amazonaws.com/color_det/134.jpg", "trial": 53, "page_name": "134_a_0.html/", "phase": "TEST", "response_gender": "NA", "response_speaker": "human", "response_object": "2", "groundtruth": "human", "object_groundtruth": "1", "machine_groundtruth": "", "imgtype": "naturaldesign"}}, "Trial_Color_14": {"workerID": "A2JPOXYZM5AJZZ", "workerData": {"country": "United States", "age": "51", "engagement": "6", "difficulty": "8", "mode": "live", "gender": "male", "education": "bachelor", "ai-experience": "1", "condition": 0, "native": "yes"}, "trialData": {"rt": 12628, "Aclass": "Machine", "imageID": "https://xiaoturing.s3.us-east-1.amazonaws.com/color_det/721.jpg", "trial": 55, "page_name": "721_c_0.html/", "phase": "TEST", "response_gender": "NA", "response_speaker": "machine", "response_object": "2", "groundtruth": "machine", "object_groundtruth": "1", "machine_groundtruth": "Histogram", "imgtype": "naturaldesign"}}, "Trial_Color_15": {"workerID": "A2JPOXYZM5AJZZ", "workerData": {"country": "United States", "age": "51", "engagement": "6", "difficulty": "8", "mode": "live", "gender": "male", "education": "bachelor", "ai-experience": "1", "condition": 0, "native": "yes"}, "trialData": {"rt": 6659, "Aclass": "Machine", "imageID": "https://xiaoturing.s3.us-east-1.amazonaws.com/color_det/522.jpg", "trial": 56, "page_name": "522_a_0.html/", "phase": "TEST", "response_gender": "NA", "response_speaker": "machine", "response_object": "1", "groundtruth": "human", "object_groundtruth": "0", "machine_groundtruth": "", "imgtype": "naturaldesign"}}, "Trial_Color_16": {"workerID": "A2JPOXYZM5AJZZ", "workerData": {"country": "United States", "age": "51", "engagement": "6", "difficulty": "8", "mode": "live", "gender": "male", "education": "bachelor", "ai-experience": "1", "condition": 0, "native": "yes"}, "trialData": {"rt": 8867, "Aclass": "Human", "imageID": "https://xiaoturing.s3.us-east-1.amazonaws.com/color_det/842.jpg", "trial": 57, "page_name": "842_a_0.html/", "phase": "TEST", "response_gender": "NA", "response_speaker": "human", "response_object": "2", "groundtruth": "human", "object_groundtruth": "1", "machine_groundtruth": "", "imgtype": "naturaldesign"}}, "Trial_Color_17": {"workerID": "A2JPOXYZM5AJZZ", "workerData": {"country": "United States", "age": "51", "engagement": "6", "difficulty": "8", "mode": "live", "gender": "male", "education": "bachelor", "ai-experience": "1", "condition": 0, "native": "yes"}, "trialData": {"rt": 8261, "Aclass": "Machine", "imageID": "https://xiaoturing.s3.us-east-1.amazonaws.com/color_det/139.jpg", "trial": 58, "page_name": "139_a_0.html/", "phase": "TEST", "response_gender": "NA", "response_speaker": "machine", "response_object": "2", "groundtruth": "human", "object_groundtruth": "1", "machine_groundtruth": "", "imgtype": "naturaldesign"}}, "Trial_Color_18": {"workerID": "A2JPOXYZM5AJZZ", "workerData": {"country": "United States", "age": "51", "engagement": "6", "difficulty": "8", "mode": "live", "gender": "male", "education": "bachelor", "ai-experience": "1", "condition": 0, "native": "yes"}, "trialData": {"rt": 28429, "Aclass": "Machine", "imageID": "https://xiaoturing.s3.us-east-1.amazonaws.com/color_det/549.jpg", "trial": 60, "page_name": "549_c_0.html/", "phase": "TEST", "response_gender": "NA", "response_speaker": "machine", "response_object": "2", "groundtruth": "machine", "object_groundtruth": "1", "machine_groundtruth": "Histogram", "imgtype": "naturaldesign"}}, "Trial_Color_19": {"workerID": "A2JPOXYZM5AJZZ", "workerData": {"country": "United States", "age": "51", "engagement": "6", "difficulty": "8", "mode": "live", "gender": "male", "education": "bachelor", "ai-experience": "1", "condition": 0, "native": "yes"}, "trialData": {"rt": 10875, "Aclass": "Machine", "imageID": "https://xiaoturing.s3.us-east-1.amazonaws.com/color_det/66.jpg", "trial": 61, "page_name": "66_c_0.html/", "phase": "TEST", "response_gender": "NA", "response_speaker": "machine", "response_object": "2", "groundtruth": "machine", "object_groundtruth": "1", "machine_groundtruth": "Histogram", "imgtype": "naturaldesign"}}, "Trial_Color_20": {"workerID": "A2JPOXYZM5AJZZ", "workerData": {"country": "United States", "age": "51", "engagement": "6", "difficulty": "8", "mode": "live", "gender": "male", "education": "bachelor", "ai-experience": "1", "condition": 0, "native": "yes"}, "trialData": {"rt": 9665, "Aclass": "Machine", "imageID": "https://xiaoturing.s3.us-east-1.amazonaws.com/color_det/137.jpg", "trial": 62, "page_name": "137_a_0.html/", "phase": "TEST", "response_gender": "NA", "response_speaker": "machine", "response_object": "1", "groundtruth": "human", "object_groundtruth": "0", "machine_groundtruth": "", "imgtype": "naturaldesign"}}, "Trial_Color_21": {"workerID": "A2JPOXYZM5AJZZ", "workerData": {"country": "United States", "age": "51", "engagement": "6", "difficulty": "8", "mode": "live", "gender": "male", "education": "bachelor", "ai-experience": "1", "condition": 0, "native": "yes"}, "trialData": {"rt": 9717, "Aclass": "Machine", "imageID": "https://xiaoturing.s3.us-east-1.amazonaws.com/color_det/827.jpg", "trial": 63, "page_name": "827_d_0.html/", "phase": "TEST", "response_gender": "NA", "response_speaker": "machine", "response_object": "1", "groundtruth": "machine", "object_groundtruth": "0", "machine_groundtruth": "Google", "imgtype": "naturaldesign"}}, "Trial_Color_22": {"workerID": "A2JPOXYZM5AJZZ", "workerData": {"country": "United States", "age": "51", "engagement": "6", "difficulty": "8", "mode": "live", "gender": "male", "education": "bachelor", "ai-experience": "1", "condition": 0, "native": "yes"}, "trialData": {"rt": 14033, "Aclass": "Human", "imageID": "https://xiaoturing.s3.us-east-1.amazonaws.com/color_det/248.jpg", "trial": 64, "page_name": "248_d_0.html/", "phase": "TEST", "response_gender": "NA", "response_speaker": "human", "response_object": "2", "groundtruth": "machine", "object_groundtruth": "1", "machine_groundtruth": "Google", "imgtype": "naturaldesign"}}, "Trial_Color_23": {"workerID": "A2JPOXYZM5AJZZ", "workerData": {"country": "United States", "age": "51", "engagement": "6", "difficulty": "8", "mode": "live", "gender": "male", "education": "bachelor", "ai-experience": "1", "condition": 0, "native": "yes"}, "trialData": {"rt": 9628, "Aclass": "Machine", "imageID": "https://xiaoturing.s3.us-east-1.amazonaws.com/color_det/1151.jpg", "trial": 65, "page_name": "1151_c_0.html/", "phase": "TEST", "response_gender": "NA", "response_speaker": "machine", "response_object": "2", "groundtruth": "machine", "object_groundtruth": "1", "machine_groundtruth": "Histogram", "imgtype": "naturaldesign"}}, "Trial_Color_24": {"workerID": "A2JPOXYZM5AJZZ", "workerData": {"country": "United States", "age": "51", "engagement": "6", "difficulty": "8", "mode": "live", "gender": "male", "education": "bachelor", "ai-experience": "1", "condition": 0, "native": "yes"}, "trialData": {"rt": 15239, "Aclass": "Machine", "imageID": "https://xiaoturing.s3.us-east-1.amazonaws.com/color_det/725.jpg", "trial": 66, "page_name": "725_a_0.html/", "phase": "TEST", "response_gender": "NA", "response_speaker": "machine", "response_object": "1", "groundtruth": "human", "object_groundtruth": "0", "machine_groundtruth": "", "imgtype": "naturaldesign"}}, "Trial_Color_25": {"workerID": "A2JPOXYZM5AJZZ", "workerData": {"country": "United States", "age": "51", "engagement": "6", "difficulty": "8", "mode": "live", "gender": "male", "education": "bachelor", "ai-experience": "1", "condition": 0, "native": "yes"}, "trialData": {"rt": 23144, "Aclass": "Machine", "imageID": "https://xiaoturing.s3.us-east-1.amazonaws.com/color_det/3.jpg", "trial": 67, "page_name": "3_d_0.html/", "phase": "TEST", "response_gender": "NA", "response_speaker": "machine", "response_object": "2", "groundtruth": "machine", "object_groundtruth": "1", "machine_groundtruth": "Google", "imgtype": "naturaldesign"}}, "Trial_Color_26": {"workerID": "A2JPOXYZM5AJZZ", "workerData": {"country": "United States", "age": "51", "engagement": "6", "difficulty": "8", "mode": "live", "gender": "male", "education": "bachelor", "ai-experience": "1", "condition": 0, "native": "yes"}, "trialData": {"rt": 40419, "Aclass": "Machine", "imageID": "https://xiaoturing.s3.us-east-1.amazonaws.com/color_det/307.jpg", "trial": 68, "page_name": "307_c_0.html/", "phase": "TEST", "response_gender": "NA", "response_speaker": "machine", "response_object": "1", "groundtruth": "machine", "object_groundtruth": "0", "machine_groundtruth": "Histogram", "imgtype": "naturaldesign"}}, "Trial_Color_27": {"workerID": "A2JPOXYZM5AJZZ", "workerData": {"country": "United States", "age": "51", "engagement": "6", "difficulty": "8", "mode": "live", "gender": "male", "education": "bachelor", "ai-experience": "1", "condition": 0, "native": "yes"}, "trialData": {"rt": 7982, "Aclass": "Human", "imageID": "https://xiaoturing.s3.us-east-1.amazonaws.com/color_det/114.jpg", "trial": 69, "page_name": "114_c_0.html/", "phase": "TEST", "response_gender": "NA", "response_speaker": "human", "response_object": "2", "groundtruth": "machine", "object_groundtruth": "0", "machine_groundtruth": "Histogram", "imgtype": "naturaldesign"}}, "Trial_Color_28": {"workerID": "A2JPOXYZM5AJZZ", "workerData": {"country": "United States", "age": "51", "engagement": "6", "difficulty": "8", "mode": "live", "gender": "male", "education": "bachelor", "ai-experience": "1", "condition": 0, "native": "yes"}, "trialData": {"rt": 9961, "Aclass": "Machine", "imageID": "https://xiaoturing.s3.us-east-1.amazonaws.com/color_det/665.jpg", "trial": 70, "page_name": "665_a_0.html/", "phase": "TEST", "response_gender": "NA", "response_speaker": "machine", "response_object": "1", "groundtruth": "human", "object_groundtruth": "0", "machine_groundtruth": "", "imgtype": "naturaldesign"}}, "Trial_Color_29": {"workerID": "A2JPOXYZM5AJZZ", "workerData": {"country": "United States", "age": "51", "engagement": "6", "difficulty": "8", "mode": "live", "gender": "male", "education": "bachelor", "ai-experience": "1", "condition": 0, "native": "yes"}, "trialData": {"rt": 10746, "Aclass": "Human", "imageID": "https://xiaoturing.s3.us-east-1.amazonaws.com/color_det/1053.jpg", "trial": 71, "page_name": "1053_c_0.html/", "phase": "TEST", "response_gender": "NA", "response_speaker": "human", "response_object": "2", "groundtruth": "machine", "object_groundtruth": "1", "machine_groundtruth": "Histogram", "imgtype": "naturaldesign"}}, "Trial_Color_30": {"workerID": "A2JPOXYZM5AJZZ", "workerData": {"country": "United States", "age": "51", "engagement": "6", "difficulty": "8", "mode": "live", "gender": "male", "education": "bachelor", "ai-experience": "1", "condition": 0, "native": "yes"}, "trialData": {"rt": 6268, "Aclass": "Human", "imageID": "https://xiaoturing.s3.us-east-1.amazonaws.com/color_det/1052.jpg", "trial": 72, "page_name": "1052_a_0.html/", "phase": "TEST", "response_gender": "NA", "response_speaker": "human", "response_object": "1", "groundtruth": "human", "object_groundtruth": "0", "machine_groundtruth": "", "imgtype": "naturaldesign"}}, "Trial_Color_31": {"workerID": "A2JPOXYZM5AJZZ", "workerData": {"country": "United States", "age": "51", "engagement": "6", "difficulty": "8", "mode": "live", "gender": "male", "education": "bachelor", "ai-experience": "1", "condition": 0, "native": "yes"}, "trialData": {"rt": 43271, "Aclass": "Machine", "imageID": "https://xiaoturing.s3.us-east-1.amazonaws.com/color_det/89.jpg", "trial": 73, "page_name": "89_a_0.html/", "phase": "TEST", "response_gender": "NA", "response_speaker": "machine", "response_object": "1", "groundtruth": "human", "object_groundtruth": "0", "machine_groundtruth": "", "imgtype": "naturaldesign"}}, "Trial_Color_32": {"workerID": "A2JPOXYZM5AJZZ", "workerData": {"country": "United States", "age": "51", "engagement": "6", "difficulty": "8", "mode": "live", "gender": "male", "education": "bachelor", "ai-experience": "1", "condition": 0, "native": "yes"}, "trialData": {"rt": 10822, "Aclass": "Machine", "imageID": "https://xiaoturing.s3.us-east-1.amazonaws.com/color_det/553.jpg", "trial": 74, "page_name": "553_c_0.html/", "phase": "TEST", "response_gender": "NA", "response_speaker": "machine", "response_object": "1", "groundtruth": "machine", "object_groundtruth": "0", "machine_groundtruth": "Histogram", "imgtype": "naturaldesign"}}, "Trial_Color_33": {"workerID": "A2JPOXYZM5AJZZ", "workerData": {"country": "United States", "age": "51", "engagement": "6", "difficulty": "8", "mode": "live", "gender": "male", "education": "bachelor", "ai-experience": "1", "condition": 0, "native": "yes"}, "trialData": {"rt": 7952, "Aclass": "Human", "imageID": "https://xiaoturing.s3.us-east-1.amazonaws.com/color_det/1163.jpg", "trial": 75, "page_name": "1163_a_0.html/", "phase": "TEST", "response_gender": "NA", "response_speaker": "human", "response_object": "1", "groundtruth": "human", "object_groundtruth": "0", "machine_groundtruth": "", "imgtype": "naturaldesign"}}, "Trial_Color_34": {"workerID": "A2JPOXYZM5AJZZ", "workerData": {"country": "United States", "age": "51", "engagement": "6", "difficulty": "8", "mode": "live", "gender": "male", "education": "bachelor", "ai-experience": "1", "condition": 0, "native": "yes"}, "trialData": {"rt": 8824, "Aclass": "Machine", "imageID": "https://xiaoturing.s3.us-east-1.amazonaws.com/color_det/230.jpg", "trial": 76, "page_name": "230_b_0.html/", "phase": "TEST", "response_gender": "NA", "response_speaker": "machine", "response_object": "2", "groundtruth": "machine", "object_groundtruth": "1", "machine_groundtruth": "Azure", "imgtype": "naturaldesign"}}, "Trial_Color_35": {"workerID": "A2JPOXYZM5AJZZ", "workerData": {"country": "United States", "age": "51", "engagement": "6", "difficulty": "8", "mode": "live", "gender": "male", "education": "bachelor", "ai-experience": "1", "condition": 0, "native": "yes"}, "trialData": {"rt": 12686, "Aclass": "Human", "imageID": "https://xiaoturing.s3.us-east-1.amazonaws.com/color_det/829.jpg", "trial": 77, "page_name": "829_a_0.html/", "phase": "TEST", "response_gender": "NA", "response_speaker": "human", "response_object": "2", "groundtruth": "human", "object_groundtruth": "1", "machine_groundtruth": "", "imgtype": "naturaldesign"}}, "Trial_Color_36": {"workerID": "A2JPOXYZM5AJZZ", "workerData": {"country": "United States", "age": "51", "engagement": "6", "difficulty": "8", "mode": "live", "gender": "male", "education": "bachelor", "ai-experience": "1", "condition": 0, "native": "yes"}, "trialData": {"rt": 7763, "Aclass": "Human", "imageID": "https://xiaoturing.s3.us-east-1.amazonaws.com/color_det/921.jpg", "trial": 78, "page_name": "921_d_0.html/", "phase": "TEST", "response_gender": "NA", "response_speaker": "human", "response_object": "2", "groundtruth": "machine", "object_groundtruth": "1", "machine_groundtruth": "Google", "imgtype": "naturaldesign"}}, "Trial_Color_37": {"workerID": "A2JPOXYZM5AJZZ", "workerData": {"country": "United States", "age": "51", "engagement": "6", "difficulty": "8", "mode": "live", "gender": "male", "education": "bachelor", "ai-experience": "1", "condition": 0, "native": "yes"}, "trialData": {"rt": 8477, "Aclass": "Human", "imageID": "https://xiaoturing.s3.us-east-1.amazonaws.com/color_det/497.jpg", "trial": 79, "page_name": "497_a_0.html/", "phase": "TEST", "response_gender": "NA", "response_speaker": "human", "response_object": "1", "groundtruth": "human", "object_groundtruth": "0", "machine_groundtruth": "", "imgtype": "naturaldesign"}}, "Trial_Color_38": {"workerID": "A2JPOXYZM5AJZZ", "workerData": {"country": "United States", "age": "51", "engagement": "6", "difficulty": "8", "mode": "live", "gender": "male", "education": "bachelor", "ai-experience": "1", "condition": 0, "native": "yes"}, "trialData": {"rt": 6927, "Aclass": "Human", "imageID": "https://xiaoturing.s3.us-east-1.amazonaws.com/color_det/867.jpg", "trial": 80, "page_name": "867_b_0.html/", "phase": "TEST", "response_gender": "NA", "response_speaker": "human", "response_object": "1", "groundtruth": "machine", "object_groundtruth": "0", "machine_groundtruth": "Azure", "imgtype": "naturaldesign"}}, "Trial_Color_39": {"workerID": "A2JPOXYZM5AJZZ", "workerData": {"country": "United States", "age": "51", "engagement": "6", "difficulty": "8", "mode": "live", "gender": "male", "education": "bachelor", "ai-experience": "1", "condition": 0, "native": "yes"}, "trialData": {"rt": 5673, "Aclass": "Human", "imageID": "https://xiaoturing.s3.us-east-1.amazonaws.com/color_det/58.jpg", "trial": 81, "page_name": "58_b_0.html/", "phase": "TEST", "response_gender": "NA", "response_speaker": "human", "response_object": "1", "groundtruth": "machine", "object_groundtruth": "0", "machine_groundtruth": "Azure", "imgtype": "naturaldesign"}}, "Trial_Color_40": {"workerID": "A2JPOXYZM5AJZZ", "workerData": {"country": "United States", "age": "51", "engagement": "6", "difficulty": "8", "mode": "live", "gender": "male", "education": "bachelor", "ai-experience": "1", "condition": 0, "native": "yes"}, "trialData": {"rt": 8689, "Aclass": "Human", "imageID": "https://xiaoturing.s3.us-east-1.amazonaws.com/color_det/510.jpg", "trial": 84, "page_name": "510_c_0.html/", "phase": "TEST", "response_gender": "NA", "response_speaker": "human", "response_object": "1", "groundtruth": "machine", "object_groundtruth": "0", "machine_groundtruth": "Histogram", "imgtype": "naturaldesign"}}, "Trial_Color_41": {"workerID": "A2JPOXYZM5AJZZ", "workerData": {"country": "United States", "age": "51", "engagement": "6", "difficulty": "8", "mode": "live", "gender": "male", "education": "bachelor", "ai-experience": "1", "condition": 0, "native": "yes"}, "trialData": {"rt": 8953, "Aclass": "Human", "imageID": "https://xiaoturing.s3.us-east-1.amazonaws.com/color_det/152.jpg", "trial": 85, "page_name": "152_a_0.html/", "phase": "TEST", "response_gender": "NA", "response_speaker": "human", "response_object": "1", "groundtruth": "human", "object_groundtruth": "0", "machine_groundtruth": "", "imgtype": "naturaldesign"}}, "Trial_Color_42": {"workerID": "A2JPOXYZM5AJZZ", "workerData": {"country": "United States", "age": "51", "engagement": "6", "difficulty": "8", "mode": "live", "gender": "male", "education": "bachelor", "ai-experience": "1", "condition": 0, "native": "yes"}, "trialData": {"rt": 7173, "Aclass": "Human", "imageID": "https://xiaoturing.s3.us-east-1.amazonaws.com/color_det/82.jpg", "trial": 86, "page_name": "82_a_0.html/", "phase": "TEST", "response_gender": "NA", "response_speaker": "human", "response_object": "1", "groundtruth": "human", "object_groundtruth": "0", "machine_groundtruth": "", "imgtype": "naturaldesign"}}, "Trial_Color_43": {"workerID": "A2JPOXYZM5AJZZ", "workerData": {"country": "United States", "age": "51", "engagement": "6", "difficulty": "8", "mode": "live", "gender": "male", "education": "bachelor", "ai-experience": "1", "condition": 0, "native": "yes"}, "trialData": {"rt": 4921, "Aclass": "Human", "imageID": "https://xiaoturing.s3.us-east-1.amazonaws.com/color_det/208.jpg", "trial": 87, "page_name": "208_b_0.html/", "phase": "TEST", "response_gender": "NA", "response_speaker": "human", "response_object": "1", "groundtruth": "machine", "object_groundtruth": "0", "machine_groundtruth": "Azure", "imgtype": "naturaldesign"}}, "Trial_Color_44": {"workerID": "A2JPOXYZM5AJZZ", "workerData": {"country": "United States", "age": "51", "engagement": "6", "difficulty": "8", "mode": "live", "gender": "male", "education": "bachelor", "ai-experience": "1", "condition": 0, "native": "yes"}, "trialData": {"rt": 7324, "Aclass": "Human", "imageID": "https://xiaoturing.s3.us-east-1.amazonaws.com/color_det/917.jpg", "trial": 88, "page_name": "917_a_0.html/", "phase": "TEST", "response_gender": "NA", "response_speaker": "human", "response_object": "1", "groundtruth": "human", "object_groundtruth": "0", "machine_groundtruth": "", "imgtype": "naturaldesign"}}, "Trial_Color_45": {"workerID": "A2JPOXYZM5AJZZ", "workerData": {"country": "United States", "age": "51", "engagement": "6", "difficulty": "8", "mode": "live", "gender": "male", "education": "bachelor", "ai-experience": "1", "condition": 0, "native": "yes"}, "trialData": {"rt": 12228, "Aclass": "Machine", "imageID": "https://xiaoturing.s3.us-east-1.amazonaws.com/color_det/597.jpg", "trial": 89, "page_name": "597_b_0.html/", "phase": "TEST", "response_gender": "NA", "response_speaker": "machine", "response_object": "2", "groundtruth": "machine", "object_groundtruth": "1", "machine_groundtruth": "Azure", "imgtype": "naturaldesign"}}, "Trial_Color_46": {"workerID": "A2JPOXYZM5AJZZ", "workerData": {"country": "United States", "age": "51", "engagement": "6", "difficulty": "8", "mode": "live", "gender": "male", "education": "bachelor", "ai-experience": "1", "condition": 0, "native": "yes"}, "trialData": {"rt": 5908, "Aclass": "Human", "imageID": "https://xiaoturing.s3.us-east-1.amazonaws.com/color_det/761.jpg", "trial": 90, "page_name": "761_a_0.html/", "phase": "TEST", "response_gender": "NA", "response_speaker": "human", "response_object": "2", "groundtruth": "human", "object_groundtruth": "1", "machine_groundtruth": "", "imgtype": "naturaldesign"}}, "Trial_Color_47": {"workerID": "A2JPOXYZM5AJZZ", "workerData": {"country": "United States", "age": "51", "engagement": "6", "difficulty": "8", "mode": "live", "gender": "male", "education": "bachelor", "ai-experience": "1", "condition": 0, "native": "yes"}, "trialData": {"rt": 6657, "Aclass": "Human", "imageID": "https://xiaoturing.s3.us-east-1.amazonaws.com/color_det/756.jpg", "trial": 91, "page_name": "756_a_0.html/", "phase": "TEST", "response_gender": "NA", "response_speaker": "human", "response_object": "2", "groundtruth": "human", "object_groundtruth": "1", "machine_groundtruth": "", "imgtype": "naturaldesign"}}, "Trial_Color_48": {"workerID": "A2JPOXYZM5AJZZ", "workerData": {"country": "United States", "age": "51", "engagement": "6", "difficulty": "8", "mode": "live", "gender": "male", "education": "bachelor", "ai-experience": "1", "condition": 0, "native": "yes"}, "trialData": {"rt": 6971, "Aclass": "Human", "imageID": "https://xiaoturing.s3.us-east-1.amazonaws.com/color_det/402.jpg", "trial": 92, "page_name": "402_a_0.html/", "phase": "TEST", "response_gender": "NA", "response_speaker": "human", "response_object": "1", "groundtruth": "human", "object_groundtruth": "0", "machine_groundtruth": "", "imgtype": "naturaldesign"}}, "Trial_Color_49": {"workerID": "A2JPOXYZM5AJZZ", "workerData": {"country": "United States", "age": "51", "engagement": "6", "difficulty": "8", "mode": "live", "gender": "male", "education": "bachelor", "ai-experience": "1", "condition": 0, "native": "yes"}, "trialData": {"rt": 20323, "Aclass": "Human", "imageID": "https://xiaoturing.s3.us-east-1.amazonaws.com/color_det/494.jpg", "trial": 93, "page_name": "494_a_0.html/", "phase": "TEST", "response_gender": "NA", "response_speaker": "human", "response_object": "2", "groundtruth": "human", "object_groundtruth": "1", "machine_groundtruth": "", "imgtype": "naturaldesign"}}, "Trial_Color_50": {"workerID": "A2JPOXYZM5AJZZ", "workerData": {"country": "United States", "age": "51", "engagement": "6", "difficulty": "8", "mode": "live", "gender": "male", "education": "bachelor", "ai-experience": "1", "condition": 0, "native": "yes"}, "trialData": {"rt": 9616, "Aclass": "Human", "imageID": "https://xiaoturing.s3.us-east-1.amazonaws.com/color_det/617.jpg", "trial": 94, "page_name": "617_a_0.html/", "phase": "TEST", "response_gender": "NA", "response_speaker": "human", "response_object": "2", "groundtruth": "human", "object_groundtruth": "1", "machine_groundtruth": "", "imgtype": "naturaldesign"}}, "Trial_Color_51": {"workerID": "A2JPOXYZM5AJZZ", "workerData": {"country": "United States", "age": "51", "engagement": "6", "difficulty": "8", "mode": "live", "gender": "male", "education": "bachelor", "ai-experience": "1", "condition": 0, "native": "yes"}, "trialData": {"rt": 8225, "Aclass": "Human", "imageID": "https://xiaoturing.s3.us-east-1.amazonaws.com/color_det/571.jpg", "trial": 95, "page_name": "571_c_0.html/", "phase": "TEST", "response_gender": "NA", "response_speaker": "human", "response_object": "1", "groundtruth": "machine", "object_groundtruth": "0", "machine_groundtruth": "Histogram", "imgtype": "naturaldesign"}}, "Trial_Color_52": {"workerID": "A2JPOXYZM5AJZZ", "workerData": {"country": "United States", "age": "51", "engagement": "6", "difficulty": "8", "mode": "live", "gender": "male", "education": "bachelor", "ai-experience": "1", "condition": 0, "native": "yes"}, "trialData": {"rt": 5122, "Aclass": "Human", "imageID": "https://xiaoturing.s3.us-east-1.amazonaws.com/color_det/311.jpg", "trial": 96, "page_name": "311_a_0.html/", "phase": "TEST", "response_gender": "NA", "response_speaker": "human", "response_object": "1", "groundtruth": "human", "object_groundtruth": "0", "machine_groundtruth": "", "imgtype": "naturaldesign"}}, "Trial_Color_53": {"workerID": "A2JPOXYZM5AJZZ", "workerData": {"country": "United States", "age": "51", "engagement": "6", "difficulty": "8", "mode": "live", "gender": "male", "education": "bachelor", "ai-experience": "1", "condition": 0, "native": "yes"}, "trialData": {"rt": 5363, "Aclass": "Human", "imageID": "https://xiaoturing.s3.us-east-1.amazonaws.com/color_det/782.jpg", "trial": 97, "page_name": "782_a_0.html/", "phase": "TEST", "response_gender": "NA", "response_speaker": "human", "response_object": "1", "groundtruth": "human", "object_groundtruth": "1", "machine_groundtruth": "", "imgtype": "naturaldesign"}}, "Trial_Color_54": {"workerID": "A2JPOXYZM5AJZZ", "workerData": {"country": "United States", "age": "51", "engagement": "6", "difficulty": "8", "mode": "live", "gender": "male", "education": "bachelor", "ai-experience": "1", "condition": 0, "native": "yes"}, "trialData": {"rt": 11676, "Aclass": "Machine", "imageID": "https://xiaoturing.s3.us-east-1.amazonaws.com/color_det/800.jpg", "trial": 98, "page_name": "800_c_0.html/", "phase": "TEST", "response_gender": "NA", "response_speaker": "machine", "response_object": "2", "groundtruth": "machine", "object_groundtruth": "1", "machine_groundtruth": "Histogram", "imgtype": "naturaldesign"}}, "Trial_Color_55": {"workerID": "A2JPOXYZM5AJZZ", "workerData": {"country": "United States", "age": "51", "engagement": "6", "difficulty": "8", "mode": "live", "gender": "male", "education": "bachelor", "ai-experience": "1", "condition": 0, "native": "yes"}, "trialData": {"rt": 12080, "Aclass": "Human", "imageID": "https://xiaoturing.s3.us-east-1.amazonaws.com/color_det/70.jpg", "trial": 100, "page_name": "70_a_0.html/", "phase": "TEST", "response_gender": "NA", "response_speaker": "human", "response_object": "2", "groundtruth": "human", "object_groundtruth": "1", "machine_groundtruth": "", "imgtype": "naturaldesign"}}, "Trial_Color_56": {"workerID": "A3O81LHBBI8NPK", "workerData": {"country": "United States", "age": "36-40", "engagement": "9", "difficulty": "10", "mode": "live", "gender": "female", "education": "high school", "ai-experience": "1", "condition": 0, "native": "yes"}, "trialData": {"rt": 6839, "Aclass": "Machine", "hit": "611", "imageID": "https://xiaoturing.s3.us-east-1.amazonaws.com/color_det/70.jpg", "trial": 41, "page_name": "70_a_0.html/", "phase": "TEST", "response_gender": "NA", "response_speaker": "machine", "response_object": "1", "groundtruth": "human", "object_groundtruth": "0", "machine_groundtruth": "", "imgtype": "naturaldesign"}}, "Trial_Color_57": {"workerID": "A3O81LHBBI8NPK", "workerData": {"country": "United States", "age": "36-40", "engagement": "9", "difficulty": "10", "mode": "live", "gender": "female", "education": "high school", "ai-experience": "1", "condition": 0, "native": "yes"}, "trialData": {"rt": 3760, "Aclass": "Human", "hit": "922", "imageID": "https://xiaoturing.s3.us-east-1.amazonaws.com/color_det/568.jpg", "trial": 42, "page_name": "568_a_0.html/", "phase": "TEST", "response_gender": "NA", "response_speaker": "human", "response_object": "2", "groundtruth": "human", "object_groundtruth": "1", "machine_groundtruth": "", "imgtype": "naturaldesign"}}, "Trial_Color_58": {"workerID": "A3O81LHBBI8NPK", "workerData": {"country": "United States", "age": "36-40", "engagement": "9", "difficulty": "10", "mode": "live", "gender": "female", "education": "high school", "ai-experience": "1", "condition": 0, "native": "yes"}, "trialData": {"rt": 4531, "Aclass": "Machine", "hit": "1131", "imageID": "https://xiaoturing.s3.us-east-1.amazonaws.com/color_det/221.jpg", "trial": 43, "page_name": "221_c_0.html/", "phase": "TEST", "response_gender": "NA", "response_speaker": "machine", "response_object": "1", "groundtruth": "machine", "object_groundtruth": "0", "machine_groundtruth": "Histogram", "imgtype": "naturaldesign"}}, "Trial_Color_59": {"workerID": "A3O81LHBBI8NPK", "workerData": {"country": "United States", "age": "36-40", "engagement": "9", "difficulty": "10", "mode": "live", "gender": "female", "education": "high school", "ai-experience": "1", "condition": 0, "native": "yes"}, "trialData": {"rt": 5697, "Aclass": "Machine", "hit": "973", "imageID": "https://xiaoturing.s3.us-east-1.amazonaws.com/color_det/587.jpg", "trial": 44, "page_name": "587_d_0.html/", "phase": "TEST", "response_gender": "NA", "response_speaker": "machine", "response_object": "2", "groundtruth": "machine", "object_groundtruth": "1", "machine_groundtruth": "Google", "imgtype": "naturaldesign"}}, "Trial_Color_60": {"workerID": "A3O81LHBBI8NPK", "workerData": {"country": "United States", "age": "36-40", "engagement": "9", "difficulty": "10", "mode": "live", "gender": "female", "education": "high school", "ai-experience": "1", "condition": 0, "native": "yes"}, "trialData": {"rt": 2988, "Aclass": "Machine", "hit": "1042", "imageID": "https://xiaoturing.s3.us-east-1.amazonaws.com/color_det/883.jpg", "trial": 45, "page_name": "883_a_0.html/", "phase": "TEST", "response_gender": "NA", "response_speaker": "machine", "response_object": "1", "groundtruth": "human", "object_groundtruth": "0", "machine_groundtruth": "", "imgtype": "naturaldesign"}}, "Trial_Color_61": {"workerID": "A3O81LHBBI8NPK", "workerData": {"country": "United States", "age": "36-40", "engagement": "9", "difficulty": "10", "mode": "live", "gender": "female", "education": "high school", "ai-experience": "1", "condition": 0, "native": "yes"}, "trialData": {"rt": 5604, "Aclass": "Machine", "hit": "541", "imageID": "https://xiaoturing.s3.us-east-1.amazonaws.com/color_det/1003.jpg", "trial": 46, "page_name": "1003_d_0.html/", "phase": "TEST", "response_gender": "NA", "response_speaker": "machine", "response_object": "2", "groundtruth": "machine", "object_groundtruth": "0", "machine_groundtruth": "Google", "imgtype": "naturaldesign"}}, "Trial_Color_62": {"workerID": "A3O81LHBBI8NPK", "workerData": {"country": "United States", "age": "36-40", "engagement": "9", "difficulty": "10", "mode": "live", "gender": "female", "education": "high school", "ai-experience": "1", "condition": 0, "native": "yes"}, "trialData": {"rt": 6927, "Aclass": "Human", "hit": "652", "imageID": "https://xiaoturing.s3.us-east-1.amazonaws.com/color_det/891.jpg", "trial": 47, "page_name": "891_c_0.html/", "phase": "TEST", "response_gender": "NA", "response_speaker": "human", "response_object": "2", "groundtruth": "machine", "object_groundtruth": "1", "machine_groundtruth": "Histogram", "imgtype": "naturaldesign"}}, "Trial_Color_63": {"workerID": "A3O81LHBBI8NPK", "workerData": {"country": "United States", "age": "36-40", "engagement": "9", "difficulty": "10", "mode": "live", "gender": "female", "education": "high school", "ai-experience": "1", "condition": 0, "native": "yes"}, "trialData": {"rt": 5179, "Aclass": "Machine", "hit": "43", "imageID": "https://xiaoturing.s3.us-east-1.amazonaws.com/color_det/576.jpg", "trial": 48, "page_name": "576_a_0.html/", "phase": "TEST", "response_gender": "NA", "response_speaker": "machine", "response_object": "1", "groundtruth": "human", "object_groundtruth": "0", "machine_groundtruth": "", "imgtype": "naturaldesign"}}, "Trial_Color_64": {"workerID": "A3O81LHBBI8NPK", "workerData": {"country": "United States", "age": "36-40", "engagement": "9", "difficulty": "10", "mode": "live", "gender": "female", "education": "high school", "ai-experience": "1", "condition": 0, "native": "yes"}, "trialData": {"rt": 4514, "Aclass": "Machine", "hit": "662", "imageID": "https://xiaoturing.s3.us-east-1.amazonaws.com/color_det/682.jpg", "trial": 49, "page_name": "682_a_0.html/", "phase": "TEST", "response_gender": "NA", "response_speaker": "machine", "response_object": "2", "groundtruth": "human", "object_groundtruth": "1", "machine_groundtruth": "", "imgtype": "naturaldesign"}}, "Trial_Color_65": {"workerID": "A3O81LHBBI8NPK", "workerData": {"country": "United States", "age": "36-40", "engagement": "9", "difficulty": "10", "mode": "live", "gender": "female", "education": "high school", "ai-experience": "1", "condition": 0, "native": "yes"}, "trialData": {"rt": 3455, "Aclass": "Human", "hit": "819", "imageID": "https://xiaoturing.s3.us-east-1.amazonaws.com/color_det/769.jpg", "trial": 50, "page_name": "769_a_0.html/", "phase": "TEST", "response_gender": "NA", "response_speaker": "human", "response_object": "2", "groundtruth": "human", "object_groundtruth": "1", "machine_groundtruth": "", "imgtype": "naturaldesign"}}, "Trial_Color_66": {"workerID": "A3O81LHBBI8NPK", "workerData": {"country": "United States", "age": "36-40", "engagement": "9", "difficulty": "10", "mode": "live", "gender": "female", "education": "high school", "ai-experience": "1", "condition": 0, "native": "yes"}, "trialData": {"rt": 3878, "Aclass": "Human", "imageID": "https://xiaoturing.s3.us-east-1.amazonaws.com/color_det/965.jpg", "trial": 51, "page_name": "965_a_0.html/", "phase": "TEST", "response_gender": "NA", "response_speaker": "human", "response_object": "1", "groundtruth": "human", "object_groundtruth": "0", "machine_groundtruth": "", "imgtype": "naturaldesign"}}, "Trial_Color_67": {"workerID": "A3O81LHBBI8NPK", "workerData": {"country": "United States", "age": "36-40", "engagement": "9", "difficulty": "10", "mode": "live", "gender": "female", "education": "high school", "ai-experience": "1", "condition": 0, "native": "yes"}, "trialData": {"rt": 4312, "Aclass": "Human", "imageID": "https://xiaoturing.s3.us-east-1.amazonaws.com/color_det/951.jpg", "trial": 53, "page_name": "951_b_0.html/", "phase": "TEST", "response_gender": "NA", "response_speaker": "human", "response_object": "2", "groundtruth": "machine", "object_groundtruth": "1", "machine_groundtruth": "Azure", "imgtype": "naturaldesign"}}, "Trial_Color_68": {"workerID": "A3O81LHBBI8NPK", "workerData": {"country": "United States", "age": "36-40", "engagement": "9", "difficulty": "10", "mode": "live", "gender": "female", "education": "high school", "ai-experience": "1", "condition": 0, "native": "yes"}, "trialData": {"rt": 4819, "Aclass": "Machine", "imageID": "https://xiaoturing.s3.us-east-1.amazonaws.com/color_det/74.jpg", "trial": 55, "page_name": "74_a_0.html/", "phase": "TEST", "response_gender": "NA", "response_speaker": "machine", "response_object": "1", "groundtruth": "human", "object_groundtruth": "0", "machine_groundtruth": "", "imgtype": "naturaldesign"}}, "Trial_Color_69": {"workerID": "A3O81LHBBI8NPK", "workerData": {"country": "United States", "age": "36-40", "engagement": "9", "difficulty": "10", "mode": "live", "gender": "female", "education": "high school", "ai-experience": "1", "condition": 0, "native": "yes"}, "trialData": {"rt": 4565, "Aclass": "Human", "imageID": "https://xiaoturing.s3.us-east-1.amazonaws.com/color_det/268.jpg", "trial": 56, "page_name": "268_b_0.html/", "phase": "TEST", "response_gender": "NA", "response_speaker": "human", "response_object": "1", "groundtruth": "machine", "object_groundtruth": "0", "machine_groundtruth": "Azure", "imgtype": "naturaldesign"}}, "Trial_Color_70": {"workerID": "A3O81LHBBI8NPK", "workerData": {"country": "United States", "age": "36-40", "engagement": "9", "difficulty": "10", "mode": "live", "gender": "female", "education": "high school", "ai-experience": "1", "condition": 0, "native": "yes"}, "trialData": {"rt": 3638, "Aclass": "Machine", "imageID": "https://xiaoturing.s3.us-east-1.amazonaws.com/color_det/134.jpg", "trial": 57, "page_name": "134_b_0.html/", "phase": "TEST", "response_gender": "NA", "response_speaker": "machine", "response_object": "1", "groundtruth": "machine", "object_groundtruth": "0", "machine_groundtruth": "Azure", "imgtype": "naturaldesign"}}, "Trial_Color_71": {"workerID": "A3O81LHBBI8NPK", "workerData": {"country": "United States", "age": "36-40", "engagement": "9", "difficulty": "10", "mode": "live", "gender": "female", "education": "high school", "ai-experience": "1", "condition": 0, "native": "yes"}, "trialData": {"rt": 3784, "Aclass": "Machine", "imageID": "https://xiaoturing.s3.us-east-1.amazonaws.com/color_det/540.jpg", "trial": 59, "page_name": "540_a_0.html/", "phase": "TEST", "response_gender": "NA", "response_speaker": "machine", "response_object": "1", "groundtruth": "human", "object_groundtruth": "0", "machine_groundtruth": "", "imgtype": "naturaldesign"}}, "Trial_Color_72": {"workerID": "A3O81LHBBI8NPK", "workerData": {"country": "United States", "age": "36-40", "engagement": "9", "difficulty": "10", "mode": "live", "gender": "female", "education": "high school", "ai-experience": "1", "condition": 0, "native": "yes"}, "trialData": {"rt": 4702, "Aclass": "Human", "imageID": "https://xiaoturing.s3.us-east-1.amazonaws.com/color_det/1028.jpg", "trial": 60, "page_name": "1028_a_0.html/", "phase": "TEST", "response_gender": "NA", "response_speaker": "human", "response_object": "2", "groundtruth": "human", "object_groundtruth": "1", "machine_groundtruth": "", "imgtype": "naturaldesign"}}, "Trial_Color_73": {"workerID": "A3O81LHBBI8NPK", "workerData": {"country": "United States", "age": "36-40", "engagement": "9", "difficulty": "10", "mode": "live", "gender": "female", "education": "high school", "ai-experience": "1", "condition": 0, "native": "yes"}, "trialData": {"rt": 3122, "Aclass": "Human", "imageID": "https://xiaoturing.s3.us-east-1.amazonaws.com/color_det/112.jpg", "trial": 61, "page_name": "112_a_0.html/", "phase": "TEST", "response_gender": "NA", "response_speaker": "human", "response_object": "1", "groundtruth": "human", "object_groundtruth": "0", "machine_groundtruth": "", "imgtype": "naturaldesign"}}, "Trial_Color_74": {"workerID": "A3O81LHBBI8NPK", "workerData": {"country": "United States", "age": "36-40", "engagement": "9", "difficulty": "10", "mode": "live", "gender": "female", "education": "high school", "ai-experience": "1", "condition": 0, "native": "yes"}, "trialData": {"rt": 3708, "Aclass": "Machine", "imageID": "https://xiaoturing.s3.us-east-1.amazonaws.com/color_det/641.jpg", "trial": 62, "page_name": "641_c_0.html/", "phase": "TEST", "response_gender": "NA", "response_speaker": "machine", "response_object": "2", "groundtruth": "machine", "object_groundtruth": "1", "machine_groundtruth": "Histogram", "imgtype": "naturaldesign"}}, "Trial_Color_75": {"workerID": "A3O81LHBBI8NPK", "workerData": {"country": "United States", "age": "36-40", "engagement": "9", "difficulty": "10", "mode": "live", "gender": "female", "education": "high school", "ai-experience": "1", "condition": 0, "native": "yes"}, "trialData": {"rt": 9804, "Aclass": "Human", "imageID": "https://xiaoturing.s3.us-east-1.amazonaws.com/color_det/914.jpg", "trial": 63, "page_name": "914_a_0.html/", "phase": "TEST", "response_gender": "NA", "response_speaker": "human", "response_object": "2", "groundtruth": "human", "object_groundtruth": "1", "machine_groundtruth": "", "imgtype": "naturaldesign"}}, "Trial_Color_76": {"workerID": "A3O81LHBBI8NPK", "workerData": {"country": "United States", "age": "36-40", "engagement": "9", "difficulty": "10", "mode": "live", "gender": "female", "education": "high school", "ai-experience": "1", "condition": 0, "native": "yes"}, "trialData": {"rt": 3669, "Aclass": "Machine", "imageID": "https://xiaoturing.s3.us-east-1.amazonaws.com/color_det/565.jpg", "trial": 64, "page_name": "565_c_0.html/", "phase": "TEST", "response_gender": "NA", "response_speaker": "machine", "response_object": "2", "groundtruth": "machine", "object_groundtruth": "1", "machine_groundtruth": "Histogram", "imgtype": "naturaldesign"}}, "Trial_Color_77": {"workerID": "A3O81LHBBI8NPK", "workerData": {"country": "United States", "age": "36-40", "engagement": "9", "difficulty": "10", "mode": "live", "gender": "female", "education": "high school", "ai-experience": "1", "condition": 0, "native": "yes"}, "trialData": {"rt": 5383, "Aclass": "Human", "imageID": "https://xiaoturing.s3.us-east-1.amazonaws.com/color_det/400.jpg", "trial": 65, "page_name": "400_a_0.html/", "phase": "TEST", "response_gender": "NA", "response_speaker": "human", "response_object": "1", "groundtruth": "human", "object_groundtruth": "0", "machine_groundtruth": "", "imgtype": "naturaldesign"}}, "Trial_Color_78": {"workerID": "A3O81LHBBI8NPK", "workerData": {"country": "United States", "age": "36-40", "engagement": "9", "difficulty": "10", "mode": "live", "gender": "female", "education": "high school", "ai-experience": "1", "condition": 0, "native": "yes"}, "trialData": {"rt": 3964, "Aclass": "Machine", "imageID": "https://xiaoturing.s3.us-east-1.amazonaws.com/color_det/539.jpg", "trial": 66, "page_name": "539_a_0.html/", "phase": "TEST", "response_gender": "NA", "response_speaker": "machine", "response_object": "2", "groundtruth": "human", "object_groundtruth": "1", "machine_groundtruth": "", "imgtype": "naturaldesign"}}, "Trial_Color_79": {"workerID": "A3O81LHBBI8NPK", "workerData": {"country": "United States", "age": "36-40", "engagement": "9", "difficulty": "10", "mode": "live", "gender": "female", "education": "high school", "ai-experience": "1", "condition": 0, "native": "yes"}, "trialData": {"rt": 3562, "Aclass": "Human", "imageID": "https://xiaoturing.s3.us-east-1.amazonaws.com/color_det/208.jpg", "trial": 67, "page_name": "208_a_0.html/", "phase": "TEST", "response_gender": "NA", "response_speaker": "human", "response_object": "2", "groundtruth": "human", "object_groundtruth": "1", "machine_groundtruth": "", "imgtype": "naturaldesign"}}, "Trial_Color_80": {"workerID": "A3O81LHBBI8NPK", "workerData": {"country": "United States", "age": "36-40", "engagement": "9", "difficulty": "10", "mode": "live", "gender": "female", "education": "high school", "ai-experience": "1", "condition": 0, "native": "yes"}, "trialData": {"rt": 6047, "Aclass": "Machine", "imageID": "https://xiaoturing.s3.us-east-1.amazonaws.com/color_det/177.jpg", "trial": 68, "page_name": "177_a_0.html/", "phase": "TEST", "response_gender": "NA", "response_speaker": "machine", "response_object": "1", "groundtruth": "human", "object_groundtruth": "0", "machine_groundtruth": "", "imgtype": "naturaldesign"}}, "Trial_Color_81": {"workerID": "A3O81LHBBI8NPK", "workerData": {"country": "United States", "age": "36-40", "engagement": "9", "difficulty": "10", "mode": "live", "gender": "female", "education": "high school", "ai-experience": "1", "condition": 0, "native": "yes"}, "trialData": {"rt": 3221, "Aclass": "Human", "imageID": "https://xiaoturing.s3.us-east-1.amazonaws.com/color_det/826.jpg", "trial": 69, "page_name": "826_c_0.html/", "phase": "TEST", "response_gender": "NA", "response_speaker": "human", "response_object": "1", "groundtruth": "machine", "object_groundtruth": "0", "machine_groundtruth": "Histogram", "imgtype": "naturaldesign"}}, "Trial_Color_82": {"workerID": "A3O81LHBBI8NPK", "workerData": {"country": "United States", "age": "36-40", "engagement": "9", "difficulty": "10", "mode": "live", "gender": "female", "education": "high school", "ai-experience": "1", "condition": 0, "native": "yes"}, "trialData": {"rt": 4927, "Aclass": "Machine", "imageID": "https://xiaoturing.s3.us-east-1.amazonaws.com/color_det/273.jpg", "trial": 70, "page_name": "273_c_0.html/", "phase": "TEST", "response_gender": "NA", "response_speaker": "machine", "response_object": "1", "groundtruth": "machine", "object_groundtruth": "0", "machine_groundtruth": "Histogram", "imgtype": "naturaldesign"}}, "Trial_Color_83": {"workerID": "A3O81LHBBI8NPK", "workerData": {"country": "United States", "age": "36-40", "engagement": "9", "difficulty": "10", "mode": "live", "gender": "female", "education": "high school", "ai-experience": "1", "condition": 0, "native": "yes"}, "trialData": {"rt": 3407, "Aclass": "Human", "imageID": "https://xiaoturing.s3.us-east-1.amazonaws.com/color_det/118.jpg", "trial": 71, "page_name": "118_a_0.html/", "phase": "TEST", "response_gender": "NA", "response_speaker": "human", "response_object": "2", "groundtruth": "human", "object_groundtruth": "1", "machine_groundtruth": "", "imgtype": "naturaldesign"}}, "Trial_Color_84": {"workerID": "A3O81LHBBI8NPK", "workerData": {"country": "United States", "age": "36-40", "engagement": "9", "difficulty": "10", "mode": "live", "gender": "female", "education": "high school", "ai-experience": "1", "condition": 0, "native": "yes"}, "trialData": {"rt": 8896, "Aclass": "Machine", "imageID": "https://xiaoturing.s3.us-east-1.amazonaws.com/color_det/243.jpg", "trial": 72, "page_name": "243_a_0.html/", "phase": "TEST", "response_gender": "NA", "response_speaker": "machine", "response_object": "1", "groundtruth": "human", "object_groundtruth": "0", "machine_groundtruth": "", "imgtype": "naturaldesign"}}, "Trial_Color_85": {"workerID": "A3O81LHBBI8NPK", "workerData": {"country": "United States", "age": "36-40", "engagement": "9", "difficulty": "10", "mode": "live", "gender": "female", "education": "high school", "ai-experience": "1", "condition": 0, "native": "yes"}, "trialData": {"rt": 3290, "Aclass": "Human", "imageID": "https://xiaoturing.s3.us-east-1.amazonaws.com/color_det/1112.jpg", "trial": 73, "page_name": "1112_b_0.html/", "phase": "TEST", "response_gender": "NA", "response_speaker": "human", "response_object": "2", "groundtruth": "machine", "object_groundtruth": "1", "machine_groundtruth": "Azure", "imgtype": "naturaldesign"}}, "Trial_Color_86": {"workerID": "A3O81LHBBI8NPK", "workerData": {"country": "United States", "age": "36-40", "engagement": "9", "difficulty": "10", "mode": "live", "gender": "female", "education": "high school", "ai-experience": "1", "condition": 0, "native": "yes"}, "trialData": {"rt": 3156, "Aclass": "Machine", "imageID": "https://xiaoturing.s3.us-east-1.amazonaws.com/color_det/1128.jpg", "trial": 74, "page_name": "1128_b_0.html/", "phase": "TEST", "response_gender": "NA", "response_speaker": "machine", "response_object": "2", "groundtruth": "machine", "object_groundtruth": "1", "machine_groundtruth": "Azure", "imgtype": "naturaldesign"}}, "Trial_Color_87": {"workerID": "A3O81LHBBI8NPK", "workerData": {"country": "United States", "age": "36-40", "engagement": "9", "difficulty": "10", "mode": "live", "gender": "female", "education": "high school", "ai-experience": "1", "condition": 0, "native": "yes"}, "trialData": {"rt": 4599, "Aclass": "Human", "imageID": "https://xiaoturing.s3.us-east-1.amazonaws.com/color_det/1075.jpg", "trial": 75, "page_name": "1075_a_0.html/", "phase": "TEST", "response_gender": "NA", "response_speaker": "human", "response_object": "2", "groundtruth": "human", "object_groundtruth": "1", "machine_groundtruth": "", "imgtype": "naturaldesign"}}, "Trial_Color_88": {"workerID": "A3O81LHBBI8NPK", "workerData": {"country": "United States", "age": "36-40", "engagement": "9", "difficulty": "10", "mode": "live", "gender": "female", "education": "high school", "ai-experience": "1", "condition": 0, "native": "yes"}, "trialData": {"rt": 4370, "Aclass": "Machine", "imageID": "https://xiaoturing.s3.us-east-1.amazonaws.com/color_det/1181.jpg", "trial": 76, "page_name": "1181_a_0.html/", "phase": "TEST", "response_gender": "NA", "response_speaker": "machine", "response_object": "1", "groundtruth": "human", "object_groundtruth": "0", "machine_groundtruth": "", "imgtype": "naturaldesign"}}, "Trial_Color_89": {"workerID": "A3O81LHBBI8NPK", "workerData": {"country": "United States", "age": "36-40", "engagement": "9", "difficulty": "10", "mode": "live", "gender": "female", "education": "high school", "ai-experience": "1", "condition": 0, "native": "yes"}, "trialData": {"rt": 3552, "Aclass": "Human", "imageID": "https://xiaoturing.s3.us-east-1.amazonaws.com/color_det/49.jpg", "trial": 77, "page_name": "49_c_0.html/", "phase": "TEST", "response_gender": "NA", "response_speaker": "human", "response_object": "1", "groundtruth": "machine", "object_groundtruth": "0", "machine_groundtruth": "Histogram", "imgtype": "naturaldesign"}}, "Trial_Color_90": {"workerID": "A3O81LHBBI8NPK", "workerData": {"country": "United States", "age": "36-40", "engagement": "9", "difficulty": "10", "mode": "live", "gender": "female", "education": "high school", "ai-experience": "1", "condition": 0, "native": "yes"}, "trialData": {"rt": 4751, "Aclass": "Human", "imageID": "https://xiaoturing.s3.us-east-1.amazonaws.com/color_det/483.jpg", "trial": 78, "page_name": "483_a_0.html/", "phase": "TEST", "response_gender": "NA", "response_speaker": "human", "response_object": "1", "groundtruth": "human", "object_groundtruth": "0", "machine_groundtruth": "", "imgtype": "naturaldesign"}}, "Trial_Color_91": {"workerID": "A3O81LHBBI8NPK", "workerData": {"country": "United States", "age": "36-40", "engagement": "9", "difficulty": "10", "mode": "live", "gender": "female", "education": "high school", "ai-experience": "1", "condition": 0, "native": "yes"}, "trialData": {"rt": 4026, "Aclass": "Machine", "imageID": "https://xiaoturing.s3.us-east-1.amazonaws.com/color_det/674.jpg", "trial": 79, "page_name": "674_b_0.html/", "phase": "TEST", "response_gender": "NA", "response_speaker": "machine", "response_object": "1", "groundtruth": "machine", "object_groundtruth": "0", "machine_groundtruth": "Azure", "imgtype": "naturaldesign"}}, "Trial_Color_92": {"workerID": "A3O81LHBBI8NPK", "workerData": {"country": "United States", "age": "36-40", "engagement": "9", "difficulty": "10", "mode": "live", "gender": "female", "education": "high school", "ai-experience": "1", "condition": 0, "native": "yes"}, "trialData": {"rt": 4748, "Aclass": "Human", "imageID": "https://xiaoturing.s3.us-east-1.amazonaws.com/color_det/867.jpg", "trial": 80, "page_name": "867_a_0.html/", "phase": "TEST", "response_gender": "NA", "response_speaker": "human", "response_object": "1", "groundtruth": "human", "object_groundtruth": "0", "machine_groundtruth": "", "imgtype": "naturaldesign"}}, "Trial_Color_93": {"workerID": "A3O81LHBBI8NPK", "workerData": {"country": "United States", "age": "36-40", "engagement": "9", "difficulty": "10", "mode": "live", "gender": "female", "education": "high school", "ai-experience": "1", "condition": 0, "native": "yes"}, "trialData": {"rt": 3730, "Aclass": "Machine", "imageID": "https://xiaoturing.s3.us-east-1.amazonaws.com/color_det/721.jpg", "trial": 81, "page_name": "721_c_0.html/", "phase": "TEST", "response_gender": "NA", "response_speaker": "machine", "response_object": "1", "groundtruth": "machine", "object_groundtruth": "0", "machine_groundtruth": "Histogram", "imgtype": "naturaldesign"}}, "Trial_Color_94": {"workerID": "A3O81LHBBI8NPK", "workerData": {"country": "United States", "age": "36-40", "engagement": "9", "difficulty": "10", "mode": "live", "gender": "female", "education": "high school", "ai-experience": "1", "condition": 0, "native": "yes"}, "trialData": {"rt": 4674, "Aclass": "Machine", "imageID": "https://xiaoturing.s3.us-east-1.amazonaws.com/color_det/611.jpg", "trial": 82, "page_name": "611_a_0.html/", "phase": "TEST", "response_gender": "NA", "response_speaker": "machine", "response_object": "1", "groundtruth": "human", "object_groundtruth": "1", "machine_groundtruth": "", "imgtype": "naturaldesign"}}, "Trial_Color_95": {"workerID": "A3O81LHBBI8NPK", "workerData": {"country": "United States", "age": "36-40", "engagement": "9", "difficulty": "10", "mode": "live", "gender": "female", "education": "high school", "ai-experience": "1", "condition": 0, "native": "yes"}, "trialData": {"rt": 3307, "Aclass": "Human", "imageID": "https://xiaoturing.s3.us-east-1.amazonaws.com/color_det/365.jpg", "trial": 83, "page_name": "365_d_0.html/", "phase": "TEST", "response_gender": "NA", "response_speaker": "human", "response_object": "2", "groundtruth": "machine", "object_groundtruth": "1", "machine_groundtruth": "Google", "imgtype": "naturaldesign"}}, "Trial_Color_96": {"workerID": "A3O81LHBBI8NPK", "workerData": {"country": "United States", "age": "36-40", "engagement": "9", "difficulty": "10", "mode": "live", "gender": "female", "education": "high school", "ai-experience": "1", "condition": 0, "native": "yes"}, "trialData": {"rt": 4463, "Aclass": "Human", "imageID": "https://xiaoturing.s3.us-east-1.amazonaws.com/color_det/922.jpg", "trial": 84, "page_name": "922_b_0.html/", "phase": "TEST", "response_gender": "NA", "response_speaker": "human", "response_object": "1", "groundtruth": "machine", "object_groundtruth": "0", "machine_groundtruth": "Azure", "imgtype": "naturaldesign"}}, "Trial_Color_97": {"workerID": "A3O81LHBBI8NPK", "workerData": {"country": "United States", "age": "36-40", "engagement": "9", "difficulty": "10", "mode": "live", "gender": "female", "education": "high school", "ai-experience": "1", "condition": 0, "native": "yes"}, "trialData": {"rt": 2841, "Aclass": "Machine", "imageID": "https://xiaoturing.s3.us-east-1.amazonaws.com/color_det/1195.jpg", "trial": 85, "page_name": "1195_a_0.html/", "phase": "TEST", "response_gender": "NA", "response_speaker": "machine", "response_object": "1", "groundtruth": "human", "object_groundtruth": "0", "machine_groundtruth": "", "imgtype": "naturaldesign"}}, "Trial_Color_98": {"workerID": "A3O81LHBBI8NPK", "workerData": {"country": "United States", "age": "36-40", "engagement": "9", "difficulty": "10", "mode": "live", "gender": "female", "education": "high school", "ai-experience": "1", "condition": 0, "native": "yes"}, "trialData": {"rt": 3799, "Aclass": "Machine", "imageID": "https://xiaoturing.s3.us-east-1.amazonaws.com/color_det/1131.jpg", "trial": 86, "page_name": "1131_a_0.html/", "phase": "TEST", "response_gender": "NA", "response_speaker": "machine", "response_object": "1", "groundtruth": "human", "object_groundtruth": "0", "machine_groundtruth": "", "imgtype": "naturaldesign"}}, "Trial_Color_99": {"workerID": "A3O81LHBBI8NPK", "workerData": {"country": "United States", "age": "36-40", "engagement": "9", "difficulty": "10", "mode": "live", "gender": "female", "education": "high school", "ai-experience": "1", "condition": 0, "native": "yes"}, "trialData": {"rt": 4427, "Aclass": "Human", "imageID": "https://xiaoturing.s3.us-east-1.amazonaws.com/color_det/1064.jpg", "trial": 87, "page_name": "1064_a_0.html/", "phase": "TEST", "response_gender": "NA", "response_speaker": "human", "response_object": "1", "groundtruth": "human", "object_groundtruth": "0", "machine_groundtruth": "", "imgtype": "naturaldesign"}}, "Trial_Color_100": {"workerID": "A3O81LHBBI8NPK", "workerData": {"country": "United States", "age": "36-40", "engagement": "9", "difficulty": "10", "mode": "live", "gender": "female", "education": "high school", "ai-experience": "1", "condition": 0, "native": "yes"}, "trialData": {"rt": 5424, "Aclass": "Human", "imageID": "https://xiaoturing.s3.us-east-1.amazonaws.com/color_det/973.jpg", "trial": 88, "page_name": "973_c_0.html/", "phase": "TEST", "response_gender": "NA", "response_speaker": "human", "response_object": "2", "groundtruth": "machine", "object_groundtruth": "1", "machine_groundtruth": "Histogram", "imgtype": "naturaldesign"}}, "Trial_Color_101": {"workerID": "A3O81LHBBI8NPK", "workerData": {"country": "United States", "age": "36-40", "engagement": "9", "difficulty": "10", "mode": "live", "gender": "female", "education": "high school", "ai-experience": "1", "condition": 0, "native": "yes"}, "trialData": {"rt": 5075, "Aclass": "Human", "imageID": "https://xiaoturing.s3.us-east-1.amazonaws.com/color_det/133.jpg", "trial": 89, "page_name": "133_c_0.html/", "phase": "TEST", "response_gender": "NA", "response_speaker": "human", "response_object": "1", "groundtruth": "machine", "object_groundtruth": "0", "machine_groundtruth": "Histogram", "imgtype": "naturaldesign"}}, "Trial_Color_102": {"workerID": "A3O81LHBBI8NPK", "workerData": {"country": "United States", "age": "36-40", "engagement": "9", "difficulty": "10", "mode": "live", "gender": "female", "education": "high school", "ai-experience": "1", "condition": 0, "native": "yes"}, "trialData": {"rt": 4051, "Aclass": "Machine", "imageID": "https://xiaoturing.s3.us-east-1.amazonaws.com/color_det/1042.jpg", "trial": 90, "page_name": "1042_b_0.html/", "phase": "TEST", "response_gender": "NA", "response_speaker": "machine", "response_object": "2", "groundtruth": "machine", "object_groundtruth": "1", "machine_groundtruth": "Azure", "imgtype": "naturaldesign"}}, "Trial_Color_103": {"workerID": "A3O81LHBBI8NPK", "workerData": {"country": "United States", "age": "36-40", "engagement": "9", "difficulty": "10", "mode": "live", "gender": "female", "education": "high school", "ai-experience": "1", "condition": 0, "native": "yes"}, "trialData": {"rt": 7740, "Aclass": "Human", "imageID": "https://xiaoturing.s3.us-east-1.amazonaws.com/color_det/1060.jpg", "trial": 91, "page_name": "1060_c_0.html/", "phase": "TEST", "response_gender": "NA", "response_speaker": "human", "response_object": "1", "groundtruth": "machine", "object_groundtruth": "1", "machine_groundtruth": "Histogram", "imgtype": "naturaldesign"}}, "Trial_Color_104": {"workerID": "A3O81LHBBI8NPK", "workerData": {"country": "United States", "age": "36-40", "engagement": "9", "difficulty": "10", "mode": "live", "gender": "female", "education": "high school", "ai-experience": "1", "condition": 0, "native": "yes"}, "trialData": {"rt": 4001, "Aclass": "Machine", "imageID": "https://xiaoturing.s3.us-east-1.amazonaws.com/color_det/652.jpg", "trial": 94, "page_name": "652_c_0.html/", "phase": "TEST", "response_gender": "NA", "response_speaker": "machine", "response_object": "1", "groundtruth": "machine", "object_groundtruth": "0", "machine_groundtruth": "Histogram", "imgtype": "naturaldesign"}}, "Trial_Color_105": {"workerID": "A3O81LHBBI8NPK", "workerData": {"country": "United States", "age": "36-40", "engagement": "9", "difficulty": "10", "mode": "live", "gender": "female", "education": "high school", "ai-experience": "1", "condition": 0, "native": "yes"}, "trialData": {"rt": 4059, "Aclass": "Human", "imageID": "https://xiaoturing.s3.us-east-1.amazonaws.com/color_det/307.jpg", "trial": 95, "page_name": "307_a_0.html/", "phase": "TEST", "response_gender": "NA", "response_speaker": "human", "response_object": "2", "groundtruth": "human", "object_groundtruth": "1", "machine_groundtruth": "", "imgtype": "naturaldesign"}}, "Trial_Color_106": {"workerID": "A3O81LHBBI8NPK", "workerData": {"country": "United States", "age": "36-40", "engagement": "9", "difficulty": "10", "mode": "live", "gender": "female", "education": "high school", "ai-experience": "1", "condition": 0, "native": "yes"}, "trialData": {"rt": 3492, "Aclass": "Machine", "imageID": "https://xiaoturing.s3.us-east-1.amazonaws.com/color_det/43.jpg", "trial": 96, "page_name": "43_a_0.html/", "phase": "TEST", "response_gender": "NA", "response_speaker": "machine", "response_object": "1", "groundtruth": "human", "object_groundtruth": "0", "machine_groundtruth": "", "imgtype": "naturaldesign"}}, "Trial_Color_107": {"workerID": "A3O81LHBBI8NPK", "workerData": {"country": "United States", "age": "36-40", "engagement": "9", "difficulty": "10", "mode": "live", "gender": "female", "education": "high school", "ai-experience": "1", "condition": 0, "native": "yes"}, "trialData": {"rt": 4763, "Aclass": "Human", "imageID": "https://xiaoturing.s3.us-east-1.amazonaws.com/color_det/36.jpg", "trial": 97, "page_name": "36_a_0.html/", "phase": "TEST", "response_gender": "NA", "response_speaker": "human", "response_object": "2", "groundtruth": "human", "object_groundtruth": "1", "machine_groundtruth": "", "imgtype": "naturaldesign"}}, "Trial_Color_108": {"workerID": "A3O81LHBBI8NPK", "workerData": {"country": "United States", "age": "36-40", "engagement": "9", "difficulty": "10", "mode": "live", "gender": "female", "education": "high school", "ai-experience": "1", "condition": 0, "native": "yes"}, "trialData": {"rt": 3810, "Aclass": "Machine", "imageID": "https://xiaoturing.s3.us-east-1.amazonaws.com/color_det/662.jpg", "trial": 98, "page_name": "662_a_0.html/", "phase": "TEST", "response_gender": "NA", "response_speaker": "machine", "response_object": "1", "groundtruth": "human", "object_groundtruth": "1", "machine_groundtruth": "", "imgtype": "naturaldesign"}}, "Trial_Color_109": {"workerID": "A3O81LHBBI8NPK", "workerData": {"country": "United States", "age": "36-40", "engagement": "9", "difficulty": "10", "mode": "live", "gender": "female", "education": "high school", "ai-experience": "1", "condition": 0, "native": "yes"}, "trialData": {"rt": 4023, "Aclass": "Human", "imageID": "https://xiaoturing.s3.us-east-1.amazonaws.com/color_det/755.jpg", "trial": 99, "page_name": "755_d_0.html/", "phase": "TEST", "response_gender": "NA", "response_speaker": "human", "response_object": "2", "groundtruth": "machine", "object_groundtruth": "0", "machine_groundtruth": "Google", "imgtype": "naturaldesign"}}, "Trial_Color_110": {"workerID": "A171S8E9IFSHH2", "workerData": {"country": "United States", "age": "26-30", "engagement": "8", "difficulty": "8", "mode": "live", "gender": "male", "education": "bachelor", "ai-experience": "2", "condition": 0, "native": "yes"}, "trialData": {"rt": 2956, "Aclass": "Human", "hit": "1151", "imageID": "https://xiaoturing.s3.us-east-1.amazonaws.com/color_det/772.jpg", "trial": 41, "page_name": "772_c_0.html/", "phase": "TEST", "response_gender": "NA", "response_speaker": "human", "response_object": "1", "groundtruth": "machine", "object_groundtruth": "0", "machine_groundtruth": "Histogram", "imgtype": "naturaldesign"}}, "Trial_Color_111": {"workerID": "A171S8E9IFSHH2", "workerData": {"country": "United States", "age": "26-30", "engagement": "8", "difficulty": "8", "mode": "live", "gender": "male", "education": "bachelor", "ai-experience": "2", "condition": 0, "native": "yes"}, "trialData": {"rt": 26472, "Aclass": "Human", "hit": "243", "imageID": "https://xiaoturing.s3.us-east-1.amazonaws.com/color_det/218.jpg", "trial": 42, "page_name": "218_a_0.html/", "phase": "TEST", "response_gender": "NA", "response_speaker": "human", "response_object": "2", "groundtruth": "human", "object_groundtruth": "1", "machine_groundtruth": "", "imgtype": "naturaldesign"}}, "Trial_Color_112": {"workerID": "A171S8E9IFSHH2", "workerData": {"country": "United States", "age": "26-30", "engagement": "8", "difficulty": "8", "mode": "live", "gender": "male", "education": "bachelor", "ai-experience": "2", "condition": 0, "native": "yes"}, "trialData": {"rt": 51990, "Aclass": "Machine", "hit": "611", "imageID": "https://xiaoturing.s3.us-east-1.amazonaws.com/color_det/510.jpg", "trial": 43, "page_name": "510_a_0.html/", "phase": "TEST", "response_gender": "NA", "response_speaker": "machine", "response_object": "1", "groundtruth": "human", "object_groundtruth": "0", "machine_groundtruth": "", "imgtype": "naturaldesign"}}, "Trial_Color_113": {"workerID": "A171S8E9IFSHH2", "workerData": {"country": "United States", "age": "26-30", "engagement": "8", "difficulty": "8", "mode": "live", "gender": "male", "education": "bachelor", "ai-experience": "2", "condition": 0, "native": "yes"}, "trialData": {"rt": 3258, "Aclass": "Human", "hit": "337", "imageID": "https://xiaoturing.s3.us-east-1.amazonaws.com/color_det/288.jpg", "trial": 44, "page_name": "288_a_0.html/", "phase": "TEST", "response_gender": "NA", "response_speaker": "human", "response_object": "2", "groundtruth": "human", "object_groundtruth": "1", "machine_groundtruth": "", "imgtype": "naturaldesign"}}, "Trial_Color_114": {"workerID": "A171S8E9IFSHH2", "workerData": {"country": "United States", "age": "26-30", "engagement": "8", "difficulty": "8", "mode": "live", "gender": "male", "education": "bachelor", "ai-experience": "2", "condition": 0, "native": "yes"}, "trialData": {"rt": 8719, "Aclass": "Machine", "hit": "1043", "imageID": "https://xiaoturing.s3.us-east-1.amazonaws.com/color_det/662.jpg", "trial": 45, "page_name": "662_d_0.html/", "phase": "TEST", "response_gender": "NA", "response_speaker": "machine", "response_object": "2", "groundtruth": "machine", "object_groundtruth": "1", "machine_groundtruth": "Google", "imgtype": "naturaldesign"}}, "Trial_Color_115": {"workerID": "A171S8E9IFSHH2", "workerData": {"country": "United States", "age": "26-30", "engagement": "8", "difficulty": "8", "mode": "live", "gender": "male", "education": "bachelor", "ai-experience": "2", "condition": 0, "native": "yes"}, "trialData": {"rt": 25113, "Aclass": "Machine", "hit": "330", "imageID": "https://xiaoturing.s3.us-east-1.amazonaws.com/color_det/805.jpg", "trial": 46, "page_name": "805_c_0.html/", "phase": "TEST", "response_gender": "NA", "response_speaker": "machine", "response_object": "2", "groundtruth": "machine", "object_groundtruth": "1", "machine_groundtruth": "Histogram", "imgtype": "naturaldesign"}}, "Trial_Color_116": {"workerID": "A171S8E9IFSHH2", "workerData": {"country": "United States", "age": "26-30", "engagement": "8", "difficulty": "8", "mode": "live", "gender": "male", "education": "bachelor", "ai-experience": "2", "condition": 0, "native": "yes"}, "trialData": {"rt": 3600, "Aclass": "Human", "hit": "860", "imageID": "https://xiaoturing.s3.us-east-1.amazonaws.com/color_det/46.jpg", "trial": 47, "page_name": "46_a_0.html/", "phase": "TEST", "response_gender": "NA", "response_speaker": "human", "response_object": "2", "groundtruth": "human", "object_groundtruth": "1", "machine_groundtruth": "", "imgtype": "naturaldesign"}}, "Trial_Color_117": {"workerID": "A171S8E9IFSHH2", "workerData": {"country": "United States", "age": "26-30", "engagement": "8", "difficulty": "8", "mode": "live", "gender": "male", "education": "bachelor", "ai-experience": "2", "condition": 0, "native": "yes"}, "trialData": {"rt": 9478, "Aclass": "Human", "hit": "725", "imageID": "https://xiaoturing.s3.us-east-1.amazonaws.com/color_det/317.jpg", "trial": 48, "page_name": "317_d_0.html/", "phase": "TEST", "response_gender": "NA", "response_speaker": "human", "response_object": "1", "groundtruth": "machine", "object_groundtruth": "0", "machine_groundtruth": "Google", "imgtype": "naturaldesign"}}, "Trial_Color_118": {"workerID": "A171S8E9IFSHH2", "workerData": {"country": "United States", "age": "26-30", "engagement": "8", "difficulty": "8", "mode": "live", "gender": "male", "education": "bachelor", "ai-experience": "2", "condition": 0, "native": "yes"}, "trialData": {"rt": 18670, "Aclass": "Machine", "hit": "729", "imageID": "https://xiaoturing.s3.us-east-1.amazonaws.com/color_det/244.jpg", "trial": 49, "page_name": "244_a_0.html/", "phase": "TEST", "response_gender": "NA", "response_speaker": "machine", "response_object": "1", "groundtruth": "human", "object_groundtruth": "0", "machine_groundtruth": "", "imgtype": "naturaldesign"}}, "Trial_Color_119": {"workerID": "A171S8E9IFSHH2", "workerData": {"country": "United States", "age": "26-30", "engagement": "8", "difficulty": "8", "mode": "live", "gender": "male", "education": "bachelor", "ai-experience": "2", "condition": 0, "native": "yes"}, "trialData": {"rt": 41313, "Aclass": "Human", "hit": "1189", "imageID": "https://xiaoturing.s3.us-east-1.amazonaws.com/color_det/532.jpg", "trial": 50, "page_name": "532_a_0.html/", "phase": "TEST", "response_gender": "NA", "response_speaker": "human", "response_object": "2", "groundtruth": "human", "object_groundtruth": "1", "machine_groundtruth": "", "imgtype": "naturaldesign"}}, "Trial_Color_120": {"workerID": "A171S8E9IFSHH2", "workerData": {"country": "United States", "age": "26-30", "engagement": "8", "difficulty": "8", "mode": "live", "gender": "male", "education": "bachelor", "ai-experience": "2", "condition": 0, "native": "yes"}, "trialData": {"rt": 4197, "Aclass": "Human", "imageID": "https://xiaoturing.s3.us-east-1.amazonaws.com/color_det/413.jpg", "trial": 51, "page_name": "413_b_0.html/", "phase": "TEST", "response_gender": "NA", "response_speaker": "human", "response_object": "1", "groundtruth": "machine", "object_groundtruth": "0", "machine_groundtruth": "Azure", "imgtype": "naturaldesign"}}, "Trial_Color_121": {"workerID": "A171S8E9IFSHH2", "workerData": {"country": "United States", "age": "26-30", "engagement": "8", "difficulty": "8", "mode": "live", "gender": "male", "education": "bachelor", "ai-experience": "2", "condition": 0, "native": "yes"}, "trialData": {"rt": 4499, "Aclass": "Human", "imageID": "https://xiaoturing.s3.us-east-1.amazonaws.com/color_det/713.jpg", "trial": 52, "page_name": "713_a_0.html/", "phase": "TEST", "response_gender": "NA", "response_speaker": "human", "response_object": "1", "groundtruth": "human", "object_groundtruth": "0", "machine_groundtruth": "", "imgtype": "naturaldesign"}}, "Trial_Color_122": {"workerID": "A171S8E9IFSHH2", "workerData": {"country": "United States", "age": "26-30", "engagement": "8", "difficulty": "8", "mode": "live", "gender": "male", "education": "bachelor", "ai-experience": "2", "condition": 0, "native": "yes"}, "trialData": {"rt": 10567, "Aclass": "Human", "imageID": "https://xiaoturing.s3.us-east-1.amazonaws.com/color_det/557.jpg", "trial": 54, "page_name": "557_a_0.html/", "phase": "TEST", "response_gender": "NA", "response_speaker": "human", "response_object": "1", "groundtruth": "human", "object_groundtruth": "0", "machine_groundtruth": "", "imgtype": "naturaldesign"}}, "Trial_Color_123": {"workerID": "A171S8E9IFSHH2", "workerData": {"country": "United States", "age": "26-30", "engagement": "8", "difficulty": "8", "mode": "live", "gender": "male", "education": "bachelor", "ai-experience": "2", "condition": 0, "native": "yes"}, "trialData": {"rt": 5823, "Aclass": "Machine", "imageID": "https://xiaoturing.s3.us-east-1.amazonaws.com/color_det/117.jpg", "trial": 55, "page_name": "117_a_0.html/", "phase": "TEST", "response_gender": "NA", "response_speaker": "machine", "response_object": "1", "groundtruth": "human", "object_groundtruth": "0", "machine_groundtruth": "", "imgtype": "naturaldesign"}}, "Trial_Color_124": {"workerID": "A171S8E9IFSHH2", "workerData": {"country": "United States", "age": "26-30", "engagement": "8", "difficulty": "8", "mode": "live", "gender": "male", "education": "bachelor", "ai-experience": "2", "condition": 0, "native": "yes"}, "trialData": {"rt": 5075, "Aclass": "Machine", "imageID": "https://xiaoturing.s3.us-east-1.amazonaws.com/color_det/143.jpg", "trial": 56, "page_name": "143_a_0.html/", "phase": "TEST", "response_gender": "NA", "response_speaker": "machine", "response_object": "1", "groundtruth": "human", "object_groundtruth": "0", "machine_groundtruth": "", "imgtype": "naturaldesign"}}, "Trial_Color_125": {"workerID": "A171S8E9IFSHH2", "workerData": {"country": "United States", "age": "26-30", "engagement": "8", "difficulty": "8", "mode": "live", "gender": "male", "education": "bachelor", "ai-experience": "2", "condition": 0, "native": "yes"}, "trialData": {"rt": 22893, "Aclass": "Human", "imageID": "https://xiaoturing.s3.us-east-1.amazonaws.com/color_det/949.jpg", "trial": 58, "page_name": "949_a_0.html/", "phase": "TEST", "response_gender": "NA", "response_speaker": "human", "response_object": "2", "groundtruth": "human", "object_groundtruth": "1", "machine_groundtruth": "", "imgtype": "naturaldesign"}}, "Trial_Color_126": {"workerID": "A171S8E9IFSHH2", "workerData": {"country": "United States", "age": "26-30", "engagement": "8", "difficulty": "8", "mode": "live", "gender": "male", "education": "bachelor", "ai-experience": "2", "condition": 0, "native": "yes"}, "trialData": {"rt": 4703, "Aclass": "Machine", "imageID": "https://xiaoturing.s3.us-east-1.amazonaws.com/color_det/755.jpg", "trial": 59, "page_name": "755_a_0.html/", "phase": "TEST", "response_gender": "NA", "response_speaker": "machine", "response_object": "2", "groundtruth": "human", "object_groundtruth": "1", "machine_groundtruth": "", "imgtype": "naturaldesign"}}, "Trial_Color_127": {"workerID": "A171S8E9IFSHH2", "workerData": {"country": "United States", "age": "26-30", "engagement": "8", "difficulty": "8", "mode": "live", "gender": "male", "education": "bachelor", "ai-experience": "2", "condition": 0, "native": "yes"}, "trialData": {"rt": 9223, "Aclass": "Human", "imageID": "https://xiaoturing.s3.us-east-1.amazonaws.com/color_det/307.jpg", "trial": 60, "page_name": "307_a_0.html/", "phase": "TEST", "response_gender": "NA", "response_speaker": "human", "response_object": "2", "groundtruth": "human", "object_groundtruth": "1", "machine_groundtruth": "", "imgtype": "naturaldesign"}}, "Trial_Color_128": {"workerID": "A171S8E9IFSHH2", "workerData": {"country": "United States", "age": "26-30", "engagement": "8", "difficulty": "8", "mode": "live", "gender": "male", "education": "bachelor", "ai-experience": "2", "condition": 0, "native": "yes"}, "trialData": {"rt": 4129, "Aclass": "Machine", "imageID": "https://xiaoturing.s3.us-east-1.amazonaws.com/color_det/531.jpg", "trial": 61, "page_name": "531_a_0.html/", "phase": "TEST", "response_gender": "NA", "response_speaker": "machine", "response_object": "2", "groundtruth": "human", "object_groundtruth": "1", "machine_groundtruth": "", "imgtype": "naturaldesign"}}, "Trial_Color_129": {"workerID": "A171S8E9IFSHH2", "workerData": {"country": "United States", "age": "26-30", "engagement": "8", "difficulty": "8", "mode": "live", "gender": "male", "education": "bachelor", "ai-experience": "2", "condition": 0, "native": "yes"}, "trialData": {"rt": 6045, "Aclass": "Machine", "imageID": "https://xiaoturing.s3.us-east-1.amazonaws.com/color_det/1150.jpg", "trial": 62, "page_name": "1150_d_0.html/", "phase": "TEST", "response_gender": "NA", "response_speaker": "machine", "response_object": "1", "groundtruth": "machine", "object_groundtruth": "0", "machine_groundtruth": "Google", "imgtype": "naturaldesign"}}, "Trial_Color_130": {"workerID": "A171S8E9IFSHH2", "workerData": {"country": "United States", "age": "26-30", "engagement": "8", "difficulty": "8", "mode": "live", "gender": "male", "education": "bachelor", "ai-experience": "2", "condition": 0, "native": "yes"}, "trialData": {"rt": 8768, "Aclass": "Machine", "imageID": "https://xiaoturing.s3.us-east-1.amazonaws.com/color_det/1073.jpg", "trial": 63, "page_name": "1073_b_0.html/", "phase": "TEST", "response_gender": "NA", "response_speaker": "machine", "response_object": "1", "groundtruth": "machine", "object_groundtruth": "0", "machine_groundtruth": "Azure", "imgtype": "naturaldesign"}}, "Trial_Color_131": {"workerID": "A171S8E9IFSHH2", "workerData": {"country": "United States", "age": "26-30", "engagement": "8", "difficulty": "8", "mode": "live", "gender": "male", "education": "bachelor", "ai-experience": "2", "condition": 0, "native": "yes"}, "trialData": {"rt": 3946, "Aclass": "Human", "imageID": "https://xiaoturing.s3.us-east-1.amazonaws.com/color_det/245.jpg", "trial": 64, "page_name": "245_a_0.html/", "phase": "TEST", "response_gender": "NA", "response_speaker": "human", "response_object": "1", "groundtruth": "human", "object_groundtruth": "0", "machine_groundtruth": "", "imgtype": "naturaldesign"}}, "Trial_Color_132": {"workerID": "A171S8E9IFSHH2", "workerData": {"country": "United States", "age": "26-30", "engagement": "8", "difficulty": "8", "mode": "live", "gender": "male", "education": "bachelor", "ai-experience": "2", "condition": 0, "native": "yes"}, "trialData": {"rt": 21124, "Aclass": "Human", "imageID": "https://xiaoturing.s3.us-east-1.amazonaws.com/color_det/911.jpg", "trial": 65, "page_name": "911_d_0.html/", "phase": "TEST", "response_gender": "NA", "response_speaker": "human", "response_object": "2", "groundtruth": "machine", "object_groundtruth": "1", "machine_groundtruth": "Google", "imgtype": "naturaldesign"}}, "Trial_Color_133": {"workerID": "A171S8E9IFSHH2", "workerData": {"country": "United States", "age": "26-30", "engagement": "8", "difficulty": "8", "mode": "live", "gender": "male", "education": "bachelor", "ai-experience": "2", "condition": 0, "native": "yes"}, "trialData": {"rt": 8138, "Aclass": "Human", "imageID": "https://xiaoturing.s3.us-east-1.amazonaws.com/color_det/919.jpg", "trial": 66, "page_name": "919_d_0.html/", "phase": "TEST", "response_gender": "NA", "response_speaker": "human", "response_object": "1", "groundtruth": "machine", "object_groundtruth": "0", "machine_groundtruth": "Google", "imgtype": "naturaldesign"}}, "Trial_Color_134": {"workerID": "A171S8E9IFSHH2", "workerData": {"country": "United States", "age": "26-30", "engagement": "8", "difficulty": "8", "mode": "live", "gender": "male", "education": "bachelor", "ai-experience": "2", "condition": 0, "native": "yes"}, "trialData": {"rt": 4565, "Aclass": "Human", "imageID": "https://xiaoturing.s3.us-east-1.amazonaws.com/color_det/204.jpg", "trial": 67, "page_name": "204_d_0.html/", "phase": "TEST", "response_gender": "NA", "response_speaker": "human", "response_object": "2", "groundtruth": "machine", "object_groundtruth": "0", "machine_groundtruth": "Google", "imgtype": "naturaldesign"}}, "Trial_Color_135": {"workerID": "A171S8E9IFSHH2", "workerData": {"country": "United States", "age": "26-30", "engagement": "8", "difficulty": "8", "mode": "live", "gender": "male", "education": "bachelor", "ai-experience": "2", "condition": 0, "native": "yes"}, "trialData": {"rt": 9253, "Aclass": "Machine", "imageID": "https://xiaoturing.s3.us-east-1.amazonaws.com/color_det/34.jpg", "trial": 68, "page_name": "34_a_0.html/", "phase": "TEST", "response_gender": "NA", "response_speaker": "machine", "response_object": "2", "groundtruth": "human", "object_groundtruth": "1", "machine_groundtruth": "", "imgtype": "naturaldesign"}}, "Trial_Color_136": {"workerID": "A171S8E9IFSHH2", "workerData": {"country": "United States", "age": "26-30", "engagement": "8", "difficulty": "8", "mode": "live", "gender": "male", "education": "bachelor", "ai-experience": "2", "condition": 0, "native": "yes"}, "trialData": {"rt": 3899, "Aclass": "Human", "imageID": "https://xiaoturing.s3.us-east-1.amazonaws.com/color_det/827.jpg", "trial": 69, "page_name": "827_a_0.html/", "phase": "TEST", "response_gender": "NA", "response_speaker": "human", "response_object": "1", "groundtruth": "human", "object_groundtruth": "0", "machine_groundtruth": "", "imgtype": "naturaldesign"}}, "Trial_Color_137": {"workerID": "A171S8E9IFSHH2", "workerData": {"country": "United States", "age": "26-30", "engagement": "8", "difficulty": "8", "mode": "live", "gender": "male", "education": "bachelor", "ai-experience": "2", "condition": 0, "native": "yes"}, "trialData": {"rt": 5311, "Aclass": "Human", "imageID": "https://xiaoturing.s3.us-east-1.amazonaws.com/color_det/466.jpg", "trial": 70, "page_name": "466_b_0.html/", "phase": "TEST", "response_gender": "NA", "response_speaker": "human", "response_object": "1", "groundtruth": "machine", "object_groundtruth": "0", "machine_groundtruth": "Azure", "imgtype": "naturaldesign"}}, "Trial_Color_138": {"workerID": "A171S8E9IFSHH2", "workerData": {"country": "United States", "age": "26-30", "engagement": "8", "difficulty": "8", "mode": "live", "gender": "male", "education": "bachelor", "ai-experience": "2", "condition": 0, "native": "yes"}, "trialData": {"rt": 6458, "Aclass": "Machine", "imageID": "https://xiaoturing.s3.us-east-1.amazonaws.com/color_det/465.jpg", "trial": 71, "page_name": "465_a_0.html/", "phase": "TEST", "response_gender": "NA", "response_speaker": "machine", "response_object": "2", "groundtruth": "human", "object_groundtruth": "1", "machine_groundtruth": "", "imgtype": "naturaldesign"}}, "Trial_Color_139": {"workerID": "A171S8E9IFSHH2", "workerData": {"country": "United States", "age": "26-30", "engagement": "8", "difficulty": "8", "mode": "live", "gender": "male", "education": "bachelor", "ai-experience": "2", "condition": 0, "native": "yes"}, "trialData": {"rt": 52694, "Aclass": "Human", "imageID": "https://xiaoturing.s3.us-east-1.amazonaws.com/color_det/877.jpg", "trial": 72, "page_name": "877_c_0.html/", "phase": "TEST", "response_gender": "NA", "response_speaker": "human", "response_object": "1", "groundtruth": "machine", "object_groundtruth": "0", "machine_groundtruth": "Histogram", "imgtype": "naturaldesign"}}, "Trial_Color_140": {"workerID": "A171S8E9IFSHH2", "workerData": {"country": "United States", "age": "26-30", "engagement": "8", "difficulty": "8", "mode": "live", "gender": "male", "education": "bachelor", "ai-experience": "2", "condition": 0, "native": "yes"}, "trialData": {"rt": 5231, "Aclass": "Machine", "imageID": "https://xiaoturing.s3.us-east-1.amazonaws.com/color_det/353.jpg", "trial": 73, "page_name": "353_b_0.html/", "phase": "TEST", "response_gender": "NA", "response_speaker": "machine", "response_object": "1", "groundtruth": "machine", "object_groundtruth": "0", "machine_groundtruth": "Azure", "imgtype": "naturaldesign"}}, "Trial_Color_141": {"workerID": "A171S8E9IFSHH2", "workerData": {"country": "United States", "age": "26-30", "engagement": "8", "difficulty": "8", "mode": "live", "gender": "male", "education": "bachelor", "ai-experience": "2", "condition": 0, "native": "yes"}, "trialData": {"rt": 8289, "Aclass": "Human", "imageID": "https://xiaoturing.s3.us-east-1.amazonaws.com/color_det/1024.jpg", "trial": 74, "page_name": "1024_b_0.html/", "phase": "TEST", "response_gender": "NA", "response_speaker": "human", "response_object": "1", "groundtruth": "machine", "object_groundtruth": "1", "machine_groundtruth": "Azure", "imgtype": "naturaldesign"}}, "Trial_Color_142": {"workerID": "A171S8E9IFSHH2", "workerData": {"country": "United States", "age": "26-30", "engagement": "8", "difficulty": "8", "mode": "live", "gender": "male", "education": "bachelor", "ai-experience": "2", "condition": 0, "native": "yes"}, "trialData": {"rt": 3996, "Aclass": "Machine", "imageID": "https://xiaoturing.s3.us-east-1.amazonaws.com/color_det/8.jpg", "trial": 75, "page_name": "8_c_0.html/", "phase": "TEST", "response_gender": "NA", "response_speaker": "machine", "response_object": "1", "groundtruth": "machine", "object_groundtruth": "1", "machine_groundtruth": "Histogram", "imgtype": "naturaldesign"}}, "Trial_Color_143": {"workerID": "A171S8E9IFSHH2", "workerData": {"country": "United States", "age": "26-30", "engagement": "8", "difficulty": "8", "mode": "live", "gender": "male", "education": "bachelor", "ai-experience": "2", "condition": 0, "native": "yes"}, "trialData": {"rt": 3998, "Aclass": "Human", "imageID": "https://xiaoturing.s3.us-east-1.amazonaws.com/color_det/809.jpg", "trial": 76, "page_name": "809_a_0.html/", "phase": "TEST", "response_gender": "NA", "response_speaker": "human", "response_object": "2", "groundtruth": "human", "object_groundtruth": "1", "machine_groundtruth": "", "imgtype": "naturaldesign"}}, "Trial_Color_144": {"workerID": "A171S8E9IFSHH2", "workerData": {"country": "United States", "age": "26-30", "engagement": "8", "difficulty": "8", "mode": "live", "gender": "male", "education": "bachelor", "ai-experience": "2", "condition": 0, "native": "yes"}, "trialData": {"rt": 5716, "Aclass": "Machine", "imageID": "https://xiaoturing.s3.us-east-1.amazonaws.com/color_det/642.jpg", "trial": 77, "page_name": "642_a_0.html/", "phase": "TEST", "response_gender": "NA", "response_speaker": "machine", "response_object": "1", "groundtruth": "human", "object_groundtruth": "1", "machine_groundtruth": "", "imgtype": "naturaldesign"}}, "Trial_Color_145": {"workerID": "A171S8E9IFSHH2", "workerData": {"country": "United States", "age": "26-30", "engagement": "8", "difficulty": "8", "mode": "live", "gender": "male", "education": "bachelor", "ai-experience": "2", "condition": 0, "native": "yes"}, "trialData": {"rt": 5054, "Aclass": "Human", "imageID": "https://xiaoturing.s3.us-east-1.amazonaws.com/color_det/415.jpg", "trial": 78, "page_name": "415_a_0.html/", "phase": "TEST", "response_gender": "NA", "response_speaker": "human", "response_object": "1", "groundtruth": "human", "object_groundtruth": "0", "machine_groundtruth": "", "imgtype": "naturaldesign"}}, "Trial_Color_146": {"workerID": "A171S8E9IFSHH2", "workerData": {"country": "United States", "age": "26-30", "engagement": "8", "difficulty": "8", "mode": "live", "gender": "male", "education": "bachelor", "ai-experience": "2", "condition": 0, "native": "yes"}, "trialData": {"rt": 15362, "Aclass": "Human", "imageID": "https://xiaoturing.s3.us-east-1.amazonaws.com/color_det/997.jpg", "trial": 79, "page_name": "997_a_0.html/", "phase": "TEST", "response_gender": "NA", "response_speaker": "human", "response_object": "2", "groundtruth": "human", "object_groundtruth": "1", "machine_groundtruth": "", "imgtype": "naturaldesign"}}, "Trial_Color_147": {"workerID": "A171S8E9IFSHH2", "workerData": {"country": "United States", "age": "26-30", "engagement": "8", "difficulty": "8", "mode": "live", "gender": "male", "education": "bachelor", "ai-experience": "2", "condition": 0, "native": "yes"}, "trialData": {"rt": 7782, "Aclass": "Human", "imageID": "https://xiaoturing.s3.us-east-1.amazonaws.com/color_det/741.jpg", "trial": 80, "page_name": "741_d_0.html/", "phase": "TEST", "response_gender": "NA", "response_speaker": "human", "response_object": "1", "groundtruth": "machine", "object_groundtruth": "1", "machine_groundtruth": "Google", "imgtype": "naturaldesign"}}, "Trial_Color_148": {"workerID": "A171S8E9IFSHH2", "workerData": {"country": "United States", "age": "26-30", "engagement": "8", "difficulty": "8", "mode": "live", "gender": "male", "education": "bachelor", "ai-experience": "2", "condition": 0, "native": "yes"}, "trialData": {"rt": 6032, "Aclass": "Machine", "imageID": "https://xiaoturing.s3.us-east-1.amazonaws.com/color_det/666.jpg", "trial": 81, "page_name": "666_c_0.html/", "phase": "TEST", "response_gender": "NA", "response_speaker": "machine", "response_object": "1", "groundtruth": "machine", "object_groundtruth": "1", "machine_groundtruth": "Histogram", "imgtype": "naturaldesign"}}, "Trial_Color_149": {"workerID": "A171S8E9IFSHH2", "workerData": {"country": "United States", "age": "26-30", "engagement": "8", "difficulty": "8", "mode": "live", "gender": "male", "education": "bachelor", "ai-experience": "2", "condition": 0, "native": "yes"}, "trialData": {"rt": 5729, "Aclass": "Human", "imageID": "https://xiaoturing.s3.us-east-1.amazonaws.com/color_det/1151.jpg", "trial": 82, "page_name": "1151_b_0.html/", "phase": "TEST", "response_gender": "NA", "response_speaker": "human", "response_object": "2", "groundtruth": "machine", "object_groundtruth": "1", "machine_groundtruth": "Azure", "imgtype": "naturaldesign"}}, "Trial_Color_150": {"workerID": "A171S8E9IFSHH2", "workerData": {"country": "United States", "age": "26-30", "engagement": "8", "difficulty": "8", "mode": "live", "gender": "male", "education": "bachelor", "ai-experience": "2", "condition": 0, "native": "yes"}, "trialData": {"rt": 4813, "Aclass": "Machine", "imageID": "https://xiaoturing.s3.us-east-1.amazonaws.com/color_det/382.jpg", "trial": 83, "page_name": "382_a_0.html/", "phase": "TEST", "response_gender": "NA", "response_speaker": "machine", "response_object": "1", "groundtruth": "human", "object_groundtruth": "0", "machine_groundtruth": "", "imgtype": "naturaldesign"}}, "Trial_Color_151": {"workerID": "A171S8E9IFSHH2", "workerData": {"country": "United States", "age": "26-30", "engagement": "8", "difficulty": "8", "mode": "live", "gender": "male", "education": "bachelor", "ai-experience": "2", "condition": 0, "native": "yes"}, "trialData": {"rt": 5420, "Aclass": "Human", "imageID": "https://xiaoturing.s3.us-east-1.amazonaws.com/color_det/243.jpg", "trial": 84, "page_name": "243_b_0.html/", "phase": "TEST", "response_gender": "NA", "response_speaker": "human", "response_object": "2", "groundtruth": "machine", "object_groundtruth": "1", "machine_groundtruth": "Azure", "imgtype": "naturaldesign"}}, "Trial_Color_152": {"workerID": "A171S8E9IFSHH2", "workerData": {"country": "United States", "age": "26-30", "engagement": "8", "difficulty": "8", "mode": "live", "gender": "male", "education": "bachelor", "ai-experience": "2", "condition": 0, "native": "yes"}, "trialData": {"rt": 8752, "Aclass": "Human", "imageID": "https://xiaoturing.s3.us-east-1.amazonaws.com/color_det/722.jpg", "trial": 85, "page_name": "722_b_0.html/", "phase": "TEST", "response_gender": "NA", "response_speaker": "human", "response_object": "1", "groundtruth": "machine", "object_groundtruth": "0", "machine_groundtruth": "Azure", "imgtype": "naturaldesign"}}, "Trial_Color_153": {"workerID": "A171S8E9IFSHH2", "workerData": {"country": "United States", "age": "26-30", "engagement": "8", "difficulty": "8", "mode": "live", "gender": "male", "education": "bachelor", "ai-experience": "2", "condition": 0, "native": "yes"}, "trialData": {"rt": 5836, "Aclass": "Machine", "imageID": "https://xiaoturing.s3.us-east-1.amazonaws.com/color_det/611.jpg", "trial": 86, "page_name": "611_b_0.html/", "phase": "TEST", "response_gender": "NA", "response_speaker": "machine", "response_object": "1", "groundtruth": "machine", "object_groundtruth": "0", "machine_groundtruth": "Azure", "imgtype": "naturaldesign"}}, "Trial_Color_154": {"workerID": "A171S8E9IFSHH2", "workerData": {"country": "United States", "age": "26-30", "engagement": "8", "difficulty": "8", "mode": "live", "gender": "male", "education": "bachelor", "ai-experience": "2", "condition": 0, "native": "yes"}, "trialData": {"rt": 9198, "Aclass": "Human", "imageID": "https://xiaoturing.s3.us-east-1.amazonaws.com/color_det/563.jpg", "trial": 87, "page_name": "563_a_0.html/", "phase": "TEST", "response_gender": "NA", "response_speaker": "human", "response_object": "2", "groundtruth": "human", "object_groundtruth": "1", "machine_groundtruth": "", "imgtype": "naturaldesign"}}, "Trial_Color_155": {"workerID": "A171S8E9IFSHH2", "workerData": {"country": "United States", "age": "26-30", "engagement": "8", "difficulty": "8", "mode": "live", "gender": "male", "education": "bachelor", "ai-experience": "2", "condition": 0, "native": "yes"}, "trialData": {"rt": 5906, "Aclass": "Machine", "imageID": "https://xiaoturing.s3.us-east-1.amazonaws.com/color_det/337.jpg", "trial": 88, "page_name": "337_d_0.html/", "phase": "TEST", "response_gender": "NA", "response_speaker": "machine", "response_object": "1", "groundtruth": "machine", "object_groundtruth": "0", "machine_groundtruth": "Google", "imgtype": "naturaldesign"}}, "Trial_Color_156": {"workerID": "A171S8E9IFSHH2", "workerData": {"country": "United States", "age": "26-30", "engagement": "8", "difficulty": "8", "mode": "live", "gender": "male", "education": "bachelor", "ai-experience": "2", "condition": 0, "native": "yes"}, "trialData": {"rt": 5238, "Aclass": "Human", "imageID": "https://xiaoturing.s3.us-east-1.amazonaws.com/color_det/1198.jpg", "trial": 89, "page_name": "1198_a_0.html/", "phase": "TEST", "response_gender": "NA", "response_speaker": "human", "response_object": "1", "groundtruth": "human", "object_groundtruth": "0", "machine_groundtruth": "", "imgtype": "naturaldesign"}}, "Trial_Color_157": {"workerID": "A171S8E9IFSHH2", "workerData": {"country": "United States", "age": "26-30", "engagement": "8", "diffi